timestamp,heel_fsr,toe_fsr,accel_x,accel_y,accel_z,gyro_x,gyro_y,gyro_z
1323,0,0,0.81,9.26,-1.96,0.02,-0.12,-0.01
1376,0,0,0.76,9.33,-1.94,0.02,-0.12,-0.01
1429,0,0,0.78,9.33,-1.99,0.02,-0.12,-0.01
1482,0,0,0.77,9.32,-2.00,0.02,-0.12,-0.01
1535,0,0,0.76,9.32,-1.99,0.02,-0.12,-0.01
1588,0,0,0.77,9.33,-2.01,0.02,-0.12,-0.01
1641,0,0,0.74,9.35,-1.95,0.02,-0.12,-0.01
1694,0,0,0.77,9.34,-2.02,0.02,-0.12,-0.01
1747,0,0,0.75,9.33,-2.00,0.02,-0.12,-0.01
1800,0,0,0.76,9.34,-1.99,0.02,-0.12,-0.01
1853,0,0,0.75,9.33,-1.97,0.02,-0.12,-0.01
1906,0,0,0.76,9.34,-1.95,0.02,-0.12,-0.01
1959,0,0,0.77,9.33,-1.99,0.02,-0.12,-0.01
2012,0,0,0.76,9.33,-1.97,0.02,-0.12,-0.01
2065,0,0,0.76,9.34,-1.98,0.02,-0.12,-0.01
2118,0,0,0.76,9.32,-1.97,0.02,-0.12,-0.01
2171,0,0,0.78,9.33,-1.95,0.02,-0.12,-0.01
2224,0,0,0.77,9.33,-1.95,0.02,-0.12,-0.01
2277,0,0,0.78,9.32,-1.96,0.02,-0.12,-0.01
2330,0,0,0.75,9.35,-1.97,0.02,-0.12,-0.01
2383,0,0,0.77,9.34,-1.97,0.02,-0.12,-0.01
2436,0,0,0.76,9.33,-1.95,0.02,-0.12,-0.01
2489,0,0,0.75,9.35,-1.95,0.02,-0.12,-0.01
2542,0,0,0.77,9.33,-1.97,0.02,-0.12,-0.01
2595,0,0,0.75,9.33,-1.99,0.02,-0.12,-0.01
2648,0,0,0.76,9.32,-1.97,0.02,-0.12,-0.01
2701,0,0,0.76,9.31,-1.99,0.02,-0.13,-0.01
2754,0,0,0.79,9.33,-1.99,0.02,-0.12,-0.01
2807,0,0,0.74,9.32,-1.96,0.02,-0.12,-0.01
2860,0,0,0.77,9.34,-1.96,0.02,-0.12,-0.01
2913,0,0,0.77,9.33,-1.94,0.02,-0.12,-0.01
2966,0,0,0.76,9.31,-1.99,0.02,-0.12,-0.01
3019,0,0,0.74,9.31,-1.98,0.02,-0.12,-0.01
3072,0,0,0.75,9.33,-2.00,0.02,-0.12,-0.01
3125,0,0,0.76,9.33,-1.97,0.02,-0.12,-0.01
3178,0,0,0.76,9.32,-1.96,0.02,-0.12,-0.01
3231,0,0,0.74,9.33,-1.97,0.02,-0.12,-0.01
3284,0,0,0.76,9.33,-1.95,0.02,-0.12,-0.01
3337,0,0,0.77,9.34,-1.98,0.02,-0.12,-0.01
3390,0,0,0.75,9.32,-1.97,0.02,-0.12,-0.01
3443,0,0,0.75,9.33,-1.96,0.02,-0.12,-0.01
3496,0,0,0.75,9.34,-1.95,0.02,-0.12,-0.01
3549,0,0,0.75,9.33,-1.97,0.02,-0.12,-0.01
3602,0,0,0.77,9.32,-1.99,0.02,-0.12,-0.01
3655,0,0,0.76,9.33,-1.99,0.02,-0.12,-0.01
3708,0,0,0.77,9.32,-1.96,0.02,-0.12,-0.01
3761,0,0,0.78,9.35,-1.95,0.02,-0.12,-0.01
3814,0,0,0.74,9.34,-1.98,0.02,-0.12,-0.01
3867,0,0,0.76,9.30,-1.98,0.02,-0.12,-0.01
3920,0,0,0.77,9.33,-1.98,0.02,-0.12,-0.01
3973,0,0,0.75,9.33,-1.95,0.02,-0.12,-0.01
4026,0,0,0.77,9.34,-1.94,0.02,-0.12,-0.01
4079,0,0,0.75,9.33,-1.96,0.02,-0.12,-0.01
4132,0,0,0.75,9.33,-1.98,0.02,-0.12,-0.01
4185,0,0,0.75,9.34,-1.98,0.02,-0.12,-0.01
4238,0,0,0.76,9.33,-1.96,0.02,-0.12,-0.01
4291,0,0,0.77,9.34,-1.95,0.02,-0.12,-0.01
4344,0,0,0.76,9.32,-1.99,0.02,-0.12,-0.01
4397,0,0,0.77,9.34,-1.99,0.02,-0.12,-0.01
4450,0,0,0.77,9.34,-1.97,0.02,-0.12,-0.01
4503,0,0,0.75,9.34,-1.97,0.02,-0.12,-0.01
4556,0,0,0.76,9.33,-1.99,0.02,-0.12,-0.01
4609,0,0,0.76,9.32,-1.98,0.02,-0.12,-0.01
4662,0,0,0.77,9.31,-1.96,0.02,-0.12,-0.01
4715,0,0,0.76,9.33,-1.99,0.02,-0.12,-0.01
4768,0,0,0.78,9.33,-1.99,0.02,-0.12,-0.01
4821,0,0,0.75,9.33,-2.02,0.02,-0.12,-0.01
4874,0,0,0.76,9.32,-1.97,0.02,-0.12,-0.01
4927,0,0,0.76,9.34,-1.98,0.02,-0.12,-0.01
4980,0,0,0.75,9.32,-1.97,0.02,-0.12,-0.01
5033,0,0,0.75,9.32,-1.96,0.02,-0.12,-0.01
5086,0,0,0.75,9.34,-1.97,0.02,-0.12,-0.01
5139,0,0,0.74,9.34,-1.95,0.02,-0.12,-0.01
5192,0,0,0.77,9.34,-1.99,0.02,-0.12,-0.01
5245,0,0,0.76,9.33,-1.98,0.02,-0.12,-0.01
5298,0,0,0.75,9.32,-1.96,0.02,-0.13,-0.01
5351,0,0,0.77,9.34,-1.96,0.02,-0.12,-0.01
5404,0,0,0.78,9.33,-1.99,0.02,-0.12,-0.01
5457,0,0,0.77,9.32,-1.97,0.02,-0.12,-0.01
5510,0,0,0.74,9.32,-1.97,0.02,-0.12,-0.01
5563,0,0,0.76,9.32,-1.99,0.02,-0.13,-0.01
5616,0,0,0.74,9.32,-1.99,0.02,-0.12,-0.01
5669,0,0,0.77,9.33,-1.97,0.02,-0.13,-0.01
5722,0,0,0.75,9.33,-1.98,0.02,-0.12,-0.01
5775,0,0,0.76,9.30,-1.95,0.02,-0.12,-0.01
5828,0,0,0.76,9.34,-1.97,0.02,-0.13,-0.01
5881,0,0,0.74,9.33,-1.97,0.02,-0.12,-0.01
5934,0,0,0.74,9.33,-2.00,0.02,-0.12,-0.01
5987,0,0,0.75,9.33,-1.98,0.02,-0.12,-0.01
6040,0,0,0.74,9.34,-1.96,0.02,-0.12,-0.01
6093,0,0,0.76,9.33,-1.97,0.02,-0.12,-0.01
6146,0,0,0.76,9.32,-2.00,0.02,-0.12,-0.01
6199,0,0,0.75,9.33,-1.98,0.02,-0.12,-0.01
6252,0,0,0.75,9.33,-2.00,0.02,-0.12,-0.01
6305,0,0,0.76,9.33,-1.96,0.02,-0.12,-0.01
6358,0,0,0.76,9.32,-1.99,0.02,-0.12,-0.01
6411,0,0,0.77,9.33,-1.96,0.02,-0.12,-0.01
6464,0,0,0.75,9.33,-1.93,0.02,-0.12,-0.01
6517,0,0,0.76,9.32,-1.99,0.02,-0.12,-0.01
6570,0,0,0.75,9.31,-1.97,0.02,-0.12,-0.01
6623,0,0,0.78,9.34,-1.97,0.02,-0.12,-0.01
6676,0,0,0.75,9.32,-1.97,0.02,-0.12,-0.01
6729,0,0,0.74,9.33,-1.98,0.02,-0.12,-0.01
6782,0,0,0.75,9.34,-1.98,0.02,-0.12,-0.01
6835,0,0,0.74,9.31,-2.00,0.02,-0.12,-0.01
6888,0,0,0.77,9.33,-1.98,0.02,-0.12,-0.01
6941,0,0,0.74,9.33,-1.98,0.02,-0.12,-0.01
6994,0,0,0.76,9.34,-1.99,0.02,-0.13,-0.01
7047,0,0,0.76,9.34,-2.00,0.02,-0.13,-0.01
7100,0,0,0.74,9.33,-1.96,0.02,-0.12,-0.01
7153,0,0,0.76,9.33,-1.97,0.02,-0.12,-0.01
7206,0,0,0.77,9.33,-1.98,0.02,-0.12,-0.01
7259,0,0,0.77,9.32,-1.96,0.02,-0.13,-0.01
7312,0,0,0.78,9.33,-1.96,0.02,-0.12,-0.01
7365,0,0,0.78,9.31,-1.96,0.02,-0.12,-0.01
7418,0,0,0.76,9.33,-1.96,0.02,-0.12,-0.01
7471,0,0,0.77,9.33,-1.98,0.02,-0.12,-0.01
7524,0,0,0.75,9.32,-1.98,0.02,-0.12,-0.01
7577,0,0,0.76,9.34,-1.96,0.02,-0.12,-0.01
7630,0,0,0.76,9.31,-1.98,0.02,-0.12,-0.01
7683,0,0,0.77,9.33,-1.96,0.02,-0.12,-0.01
7736,0,0,0.77,9.30,-1.99,0.02,-0.12,-0.01
7789,0,0,0.75,9.33,-1.97,0.02,-0.12,-0.01
7842,0,0,0.75,9.31,-1.97,0.02,-0.12,-0.01
7895,0,0,0.73,9.33,-2.01,0.02,-0.12,-0.01
7948,0,0,0.75,9.33,-1.97,0.02,-0.12,-0.01
8001,0,0,0.76,9.33,-1.98,0.02,-0.13,-0.01
8054,0,0,0.77,9.33,-2.00,0.02,-0.13,-0.01
8107,0,0,0.76,9.31,-1.99,0.02,-0.12,-0.01
8160,0,0,0.73,9.35,-1.96,0.02,-0.12,-0.01
8213,0,0,0.75,9.34,-1.97,0.02,-0.12,-0.01
8266,0,0,0.74,9.33,-1.98,0.02,-0.12,-0.01
8319,0,0,0.75,9.33,-1.98,0.02,-0.13,-0.01
8372,0,0,0.75,9.33,-1.97,0.02,-0.12,-0.01
8425,0,0,0.74,9.33,-2.01,0.02,-0.12,-0.01
8478,0,0,0.75,9.32,-1.98,0.02,-0.12,-0.01
8531,0,0,0.77,9.34,-1.97,0.02,-0.12,-0.01
8584,0,0,0.75,9.30,-1.96,0.02,-0.12,-0.01
8637,0,0,0.75,9.33,-1.95,0.02,-0.13,-0.01
8690,0,0,0.75,9.32,-2.00,0.02,-0.13,-0.01
8743,0,0,0.76,9.32,-1.99,0.02,-0.12,-0.01
8796,0,0,0.75,9.35,-2.00,0.02,-0.12,-0.01
8849,0,0,0.77,9.35,-1.97,0.02,-0.12,-0.01
8902,0,0,0.74,9.33,-1.98,0.02,-0.13,-0.01
8955,0,0,0.74,9.33,-2.01,0.02,-0.12,-0.01
9008,0,0,0.75,9.33,-1.97,0.02,-0.13,-0.01
9061,0,0,0.76,9.31,-1.98,0.02,-0.13,-0.01
9114,0,0,0.74,9.33,-2.01,0.02,-0.13,-0.01
9167,0,0,0.74,9.32,-2.01,0.02,-0.13,-0.01
9220,0,0,0.75,9.31,-1.94,0.02,-0.13,-0.01
9273,0,0,0.75,9.34,-1.97,0.02,-0.13,-0.01
9326,0,0,0.75,9.32,-2.00,0.02,-0.13,-0.01
9379,0,0,0.76,9.33,-1.95,0.02,-0.12,-0.01
9432,0,0,0.74,9.33,-1.99,0.02,-0.12,-0.01
9485,0,0,0.74,9.34,-1.98,0.02,-0.12,-0.01
9538,0,0,0.75,9.32,-1.98,0.02,-0.12,-0.01
9591,0,0,0.74,9.31,-2.02,0.02,-0.12,-0.01
9644,0,0,0.75,9.32,-1.97,0.02,-0.12,-0.01
9697,0,0,0.76,9.33,-1.98,0.02,-0.12,-0.01
9750,0,0,0.74,9.35,-1.95,0.02,-0.13,-0.01
9803,0,0,0.75,9.33,-1.98,0.02,-0.13,-0.01
9856,0,0,0.74,9.32,-1.97,0.02,-0.13,-0.01
9909,0,0,0.75,9.32,-1.98,0.02,-0.13,-0.01
9962,0,0,0.74,9.28,-1.98,0.02,-0.12,-0.01
10015,0,0,0.76,9.33,-1.97,0.02,-0.12,-0.01
10068,0,0,0.75,9.34,-1.97,0.02,-0.13,-0.01
10121,0,0,0.74,9.33,-2.00,0.02,-0.12,-0.01
10174,0,0,0.72,9.34,-1.97,0.02,-0.12,-0.01
10227,0,0,0.74,9.31,-1.97,0.02,-0.12,-0.01
10280,0,0,0.74,9.33,-1.95,0.02,-0.12,-0.01
10333,0,0,0.77,9.34,-1.98,0.02,-0.13,-0.01
10386,0,0,0.78,9.33,-1.99,0.02,-0.13,-0.01
10439,0,0,0.74,9.33,-1.97,0.02,-0.13,-0.01
10492,0,0,0.77,9.32,-1.99,0.02,-0.12,-0.01
10545,0,0,0.74,9.33,-1.97,0.02,-0.12,-0.01
10598,0,0,0.74,9.34,-2.00,0.02,-0.13,-0.01
10651,0,0,0.75,9.33,-1.97,0.02,-0.13,-0.01
10704,0,0,0.73,9.32,-1.98,0.02,-0.13,-0.01
10757,0,0,0.77,9.32,-2.01,0.02,-0.13,-0.01
10810,0,0,0.77,9.29,-1.98,0.02,-0.13,-0.01
10863,0,0,0.73,9.32,-1.95,0.02,-0.13,-0.01
10916,0,0,0.75,9.33,-2.00,0.02,-0.12,-0.01
10969,0,0,0.75,9.32,-1.95,0.02,-0.12,-0.01
11022,0,0,0.74,9.33,-1.97,0.02,-0.12,-0.01
11075,0,0,0.73,9.33,-1.95,0.02,-0.13,-0.01
11128,0,0,0.76,9.31,-1.99,0.02,-0.13,-0.01
11181,0,0,0.76,9.31,-1.98,0.02,-0.13,-0.01
11234,0,0,0.73,9.32,-1.98,0.02,-0.13,-0.01
11287,0,0,0.76,9.31,-1.97,0.02,-0.13,-0.01
11340,0,0,0.74,9.34,-1.97,0.02,-0.12,-0.01
11393,0,0,0.74,9.31,-2.00,0.02,-0.13,-0.02
11446,0,0,0.76,9.34,-1.98,0.02,-0.13,-0.01
11499,0,0,0.75,9.32,-1.94,0.02,-0.13,-0.01
11552,0,0,0.75,9.32,-1.98,0.02,-0.13,-0.01
11605,0,0,0.76,9.32,-1.98,0.02,-0.13,-0.01
11658,0,0,0.76,9.33,-1.90,0.02,-0.12,-0.01
11711,0,0,0.69,9.34,-1.94,0.02,-0.12,-0.01
11764,0,0,0.74,9.32,-2.00,0.02,-0.12,-0.01
11817,0,0,0.69,9.40,-1.96,0.02,-0.12,-0.01
11870,0,0,0.78,9.23,-1.92,0.02,-0.12,-0.01
11923,0,0,0.78,9.30,-1.98,0.02,-0.13,-0.01
11976,0,0,0.75,9.32,-1.96,0.02,-0.13,-0.01
12029,0,0,0.73,9.32,-2.01,0.02,-0.13,-0.01
12082,0,0,0.71,9.32,-2.00,0.02,-0.12,-0.01
12135,0,0,0.74,9.34,-1.96,0.02,-0.13,-0.01
12188,0,0,0.77,9.32,-1.95,0.02,-0.13,-0.01
12241,0,0,0.76,9.34,-1.98,0.02,-0.13,-0.01
12294,0,0,0.74,9.34,-1.95,0.02,-0.13,-0.01
12347,0,0,0.76,9.32,-1.97,0.02,-0.13,-0.01
12400,0,0,0.73,9.31,-1.98,0.02,-0.12,-0.01
12453,0,0,0.82,9.32,-1.94,0.02,-0.12,-0.01
12506,0,0,0.82,9.30,-1.98,0.02,-0.13,-0.01
12559,0,0,0.67,9.35,-1.97,0.02,-0.12,-0.01
12612,0,0,0.65,9.31,-1.95,0.02,-0.13,-0.01
12665,0,0,0.78,9.32,-1.94,0.02,-0.12,-0.01
12718,0,0,0.70,9.23,-2.07,0.01,-0.12,-0.01
12771,0,0,0.66,9.37,-1.93,0.02,-0.13,-0.01
12824,0,0,0.77,9.33,-1.92,0.02,-0.13,-0.01
12877,0,0,0.75,9.31,-2.05,0.02,-0.13,-0.01
12930,0,0,0.74,9.34,-2.00,0.02,-0.13,-0.01
12983,0,0,0.76,9.32,-1.96,0.02,-0.12,-0.01
13036,0,0,0.74,9.31,-1.98,0.02,-0.12,-0.01
13089,0,0,0.78,9.31,-1.99,0.02,-0.12,-0.01
13142,0,0,0.79,9.34,-1.91,0.02,-0.12,-0.01
13195,0,0,0.75,9.31,-1.99,0.02,-0.13,-0.01
13248,0,0,0.73,9.32,-2.02,0.02,-0.13,-0.01
13301,0,0,0.74,9.33,-1.98,0.02,-0.12,-0.01
13354,0,0,0.77,9.34,-2.00,0.02,-0.13,-0.01
13407,0,0,0.74,9.33,-1.99,0.02,-0.13,-0.01
13460,0,0,0.75,9.30,-1.96,0.02,-0.13,-0.01
13513,0,0,0.75,9.31,-2.03,0.02,-0.13,-0.01
13566,0,0,0.84,9.30,-1.98,0.03,-0.14,-0.02
13619,0,0,0.80,9.33,-1.98,0.02,-0.13,-0.01
13672,0,0,0.79,9.33,-2.01,0.02,-0.12,-0.01
13725,0,0,0.76,9.31,-2.00,0.02,-0.12,-0.01
13778,0,0,0.76,9.32,-1.96,0.02,-0.12,-0.01
13831,0,0,0.75,9.33,-1.98,0.02,-0.12,-0.01
13884,0,0,0.76,9.36,-1.96,0.02,-0.13,-0.01
13937,0,0,0.75,9.34,-1.98,0.02,-0.13,-0.01
13990,0,0,0.76,9.34,-1.98,0.02,-0.13,-0.01
14043,0,0,0.75,9.31,-1.98,0.02,-0.13,-0.01
14096,0,0,0.74,9.33,-2.00,0.02,-0.13,-0.01
14149,0,0,0.76,9.31,-1.97,0.02,-0.13,-0.01
14202,0,0,0.76,9.33,-1.97,0.02,-0.12,-0.01
14255,0,0,0.74,9.32,-1.98,0.02,-0.12,-0.01
14308,0,0,0.73,9.32,-1.98,0.02,-0.12,-0.01
14361,0,0,0.74,9.34,-1.98,0.02,-0.12,-0.01
14414,0,0,0.75,9.32,-2.00,0.02,-0.12,-0.01
14467,0,0,0.73,9.32,-1.96,0.02,-0.13,-0.01
14520,0,0,0.74,9.32,-1.98,0.02,-0.13,-0.01
14573,0,0,0.74,9.33,-2.01,0.02,-0.13,-0.01
14626,0,0,0.77,9.32,-1.98,0.02,-0.12,-0.01
14679,0,0,0.74,9.32,-1.98,0.02,-0.13,-0.01
14732,0,0,0.75,9.33,-1.98,0.02,-0.13,-0.01
14785,0,0,0.77,9.31,-2.00,0.02,-0.13,-0.01
14838,0,0,0.74,9.32,-2.01,0.02,-0.12,-0.01
14891,0,0,0.72,9.31,-1.98,0.02,-0.12,-0.02
14944,0,0,0.79,9.32,-1.99,0.02,-0.12,-0.02
14997,0,0,0.78,9.34,-1.95,0.02,-0.13,-0.01
15050,0,0,0.75,9.34,-1.99,0.02,-0.13,-0.01
15103,0,0,0.74,9.32,-2.03,0.02,-0.13,-0.01
15156,0,0,0.75,9.32,-1.98,0.02,-0.12,-0.01
15209,0,0,0.75,9.32,-2.00,0.02,-0.12,-0.01
15262,0,0,0.75,9.32,-2.03,0.02,-0.12,-0.01
15315,0,0,0.72,9.33,-1.94,0.02,-0.12,-0.01
15368,0,0,0.74,9.31,-1.99,0.02,-0.13,-0.01
15421,0,0,0.74,9.32,-2.01,0.02,-0.13,-0.01
15474,0,0,0.74,9.30,-2.00,0.02,-0.13,-0.01
15527,0,0,-1.73,11.14,-1.89,-0.96,1.08,-1.50
15580,0,0,0.13,10.36,-1.04,0.51,0.25,1.91
15633,0,0,2.48,14.79,-1.43,0.55,0.88,-1.36
15686,0,0,-0.25,7.11,-1.41,1.20,1.76,0.75
15739,0,0,-0.01,9.25,-3.11,1.95,1.01,1.66
15792,0,0,4.59,9.00,-2.67,4.01,-0.10,8.73
15845,0,0,5.74,6.16,-5.09,1.47,0.28,2.23
15898,0,0,5.59,5.37,-5.54,1.17,0.51,1.37
15951,0,0,5.78,3.20,-4.86,-0.19,0.42,0.86
16004,0,0,5.71,5.67,-5.46,-0.00,-0.21,-0.78
16057,0,0,5.31,4.67,-5.39,-0.15,-0.21,0.49
16110,0,0,6.24,5.20,-5.72,-0.89,0.34,0.07
16163,0,0,6.66,5.20,-4.24,-0.29,0.08,-0.40
16216,0,0,5.97,5.80,-5.63,-0.62,0.21,-0.68
16269,0,0,6.02,5.78,-4.67,-0.72,0.10,-0.95
16322,0,0,5.57,6.24,-3.69,-1.09,-0.19,-0.93
16375,0,0,4.73,8.09,-3.69,-2.44,-0.87,-0.87
16428,0,0,3.90,8.14,-2.38,-1.54,-0.92,-1.25
16481,0,0,3.77,8.46,-2.68,-1.47,-0.92,-1.47
16534,0,0,2.10,9.39,-1.78,-0.67,-0.42,-1.97
16587,0,0,1.23,10.53,-1.91,-0.17,0.10,-1.48
16640,0,0,2.05,10.23,-2.89,1.12,-0.49,-4.72
16693,0,0,-2.94,8.02,-3.11,1.83,-0.81,-4.05
16746,0,0,-2.71,8.19,-2.80,0.65,0.58,0.81
16799,0,0,-2.63,8.34,-3.39,0.34,0.30,-0.44
16852,0,0,-2.40,7.63,-3.50,0.44,-0.30,-0.97
16905,0,0,-2.78,9.03,-3.70,0.77,-0.31,1.75
16958,0,0,-3.22,8.73,-3.46,0.03,1.12,2.43
17011,0,0,-0.58,7.42,-4.64,1.74,0.24,1.60
17064,0,0,-0.62,7.75,-3.92,0.85,0.84,0.87
17117,0,0,-0.79,7.31,-4.59,1.12,1.06,0.32
17170,0,0,3.99,7.20,-4.20,-0.01,2.13,3.41
17223,0,0,4.02,6.89,-4.49,0.59,2.35,5.26
17276,0,0,6.72,6.58,-4.97,0.62,0.67,0.33
17329,0,0,6.11,5.28,-4.80,1.39,1.65,3.16
17382,0,0,6.47,2.90,-6.23,2.51,0.92,2.38
17435,0,0,7.25,2.38,-5.30,2.68,0.34,-0.39
17488,0,0,8.48,1.16,-5.08,3.25,-0.24,-0.01
17541,0,0,7.43,0.81,-5.80,1.46,-0.85,-0.53
17594,0,0,6.28,0.63,-6.96,-0.37,-1.15,1.12
17647,0,0,6.40,1.11,-6.64,0.07,-0.36,1.85
17700,0,0,7.66,-0.76,-6.57,-0.24,-0.49,0.97
17753,0,0,6.75,-0.96,-7.33,-0.12,0.04,0.53
17806,0,0,6.61,-0.88,-6.36,-0.63,0.13,-0.09
17859,0,0,7.48,0.78,-6.65,-0.53,0.50,-0.54
17912,0,0,7.31,0.57,-6.63,0.28,0.61,-0.18
17965,0,0,8.03,0.48,-5.82,0.41,0.30,-0.90
18018,0,0,8.40,0.47,-4.71,0.03,0.44,-1.27
18071,0,0,7.84,1.18,-6.52,0.08,0.00,-1.32
18124,0,0,8.16,1.33,-4.69,-0.27,0.08,-0.51
18177,0,0,8.09,2.01,-5.34,-0.25,-0.23,-0.22
18230,0,0,7.26,2.26,-5.68,-0.53,-0.05,0.13
18283,0,0,8.20,2.09,-5.05,-0.19,0.04,-0.47
18336,0,0,7.93,2.53,-5.35,-0.36,-0.00,-0.34
18389,0,0,7.80,2.67,-4.96,-0.72,-0.35,-0.49
18442,0,0,7.25,3.36,-4.67,-0.42,-0.56,-1.44
18495,0,0,7.03,3.79,-4.99,-0.38,-0.39,-0.39
18548,0,0,6.96,4.24,-5.42,-0.39,-0.28,0.12
18601,0,0,7.45,3.99,-4.82,0.01,-0.07,0.34
18654,0,0,7.17,3.70,-5.41,0.62,-0.01,0.98
18707,0,0,7.11,3.54,-5.28,0.09,-0.22,0.02
18760,0,0,7.42,3.47,-5.28,0.30,-0.23,-0.50
18813,0,0,7.13,3.50,-5.59,-0.23,-0.28,-0.29
18866,0,0,6.86,4.02,-4.98,-1.42,-0.30,-1.32
18919,0,0,6.74,5.49,-4.83,-2.31,-0.58,-0.24
18972,0,0,6.64,5.35,-3.90,-2.47,-0.79,-0.88
19025,0,0,6.12,6.11,-3.59,-1.57,-1.10,-1.40
19078,0,0,5.78,6.73,-3.00,-2.04,-0.01,-1.50
19131,0,0,4.33,8.73,-2.94,-1.15,-0.70,-0.31
19184,0,0,4.12,8.75,-2.77,-0.52,-1.05,-0.86
19237,0,0,2.81,8.51,-2.49,-0.93,-0.71,-1.39
19290,0,0,2.52,9.24,-2.13,-0.71,-1.22,-0.94
19343,0,0,1.82,9.12,-1.65,-0.48,-0.63,-0.25
19396,0,0,1.67,9.81,-1.53,-0.61,-0.50,-0.01
19449,0,0,1.16,9.33,-1.32,-0.43,-0.27,0.33
19502,0,0,2.05,9.28,-1.14,-0.03,-0.17,-0.11
19555,0,0,2.07,9.58,-1.35,0.27,-0.29,0.31
19608,0,0,1.78,9.62,-1.86,1.61,0.06,0.57
19661,0,0,2.04,9.45,-2.58,2.41,-0.33,0.91
19714,0,0,3.94,7.31,-4.06,4.14,-0.19,1.42
19767,0,0,3.95,6.29,-6.18,3.36,-0.22,1.51
19820,0,0,4.48,3.96,-6.29,3.84,-0.06,2.23
19873,0,0,4.68,3.24,-7.59,1.97,0.04,0.89
19926,0,0,5.02,2.00,-7.29,1.64,-0.39,-0.32
19979,0,0,4.81,1.93,-7.64,-0.20,-0.24,-0.11
20032,0,0,4.66,2.36,-7.55,-1.73,-0.63,-0.80
20085,0,0,3.66,4.10,-7.82,-3.04,-0.85,-2.17
20138,0,0,2.23,4.96,-5.50,-1.03,0.05,-0.99
20191,0,0,6.96,-1.54,-9.26,0.12,1.22,2.14
20244,0,0,3.49,7.17,-6.64,-0.17,0.23,0.37
20297,0,0,3.90,5.69,-6.10,-0.28,-0.12,0.73
20350,0,0,3.99,6.73,-6.20,-0.43,-0.41,0.06
20403,0,0,3.24,6.09,-5.81,-0.17,-0.32,0.02
20456,0,0,3.39,6.28,-6.27,-0.14,-0.14,-0.14
20509,0,0,4.10,6.90,-5.97,-0.05,-0.41,1.47
20562,0,0,3.86,5.43,-5.78,-0.38,0.16,-1.98
20615,0,0,3.86,6.31,-5.77,-0.29,-0.10,-0.27
20668,0,0,3.57,6.69,-5.80,-0.23,-0.33,-0.82
20721,0,0,3.29,6.76,-5.63,0.10,0.24,-1.11
20774,0,0,3.36,7.09,-5.87,0.35,-0.39,-0.68
20827,0,0,2.24,6.55,-6.43,0.14,-0.45,-0.54
20880,0,0,3.04,6.58,-5.46,-0.13,-0.24,-0.06
20933,0,0,2.57,7.03,-5.49,-0.03,-0.52,-0.41
20986,0,0,1.34,6.79,-5.50,-0.31,-0.67,-1.34
21039,0,0,0.70,7.47,-6.14,-0.06,-0.41,-0.35
21092,0,0,1.61,7.68,-5.63,-0.58,-0.63,-1.61
21145,0,0,-0.57,7.55,-5.67,-0.57,-0.91,-2.18
21198,0,0,-1.75,6.64,-4.64,-0.97,-1.21,-3.08
21251,0,0,-4.15,7.36,-4.71,-0.46,-0.76,-1.02
21304,0,0,-4.43,7.29,-4.76,-0.07,-0.58,-2.00
21357,0,0,-4.24,7.18,-4.23,-0.17,0.14,0.12
21410,0,0,-3.51,7.44,-4.41,-0.35,0.32,0.37
21463,0,0,-3.38,7.32,-4.28,-0.44,-0.34,-1.01
21516,0,0,-3.92,7.59,-4.13,-0.50,-0.12,-1.18
21569,0,0,-4.14,7.06,-3.92,-0.32,-0.16,-0.90
21622,0,0,-4.09,7.40,-3.25,-0.48,-0.60,-0.65
21675,0,0,-5.36,7.14,-3.40,-0.21,0.03,0.46
21728,0,0,-4.27,7.17,-3.47,-1.09,1.02,0.47
21781,0,0,-4.19,7.67,-3.26,-1.01,0.91,0.33
21834,0,0,-3.54,8.25,-3.03,-0.94,0.85,1.93
21887,0,0,-2.37,8.60,-2.59,-1.03,1.07,0.23
21940,0,0,-2.30,8.58,-2.54,-0.72,0.69,0.31
21993,0,0,-1.75,8.94,-2.12,-0.71,-0.13,1.02
22046,0,0,-1.63,9.10,-2.15,-0.11,-0.02,0.12
22099,0,0,-1.73,8.95,-1.94,-0.32,0.25,-0.02
22152,0,0,-1.40,8.83,-1.88,-0.60,0.43,0.12
22205,0,0,-1.65,9.27,-1.64,-0.52,0.89,-0.54
22258,0,0,-1.39,9.12,-1.03,-1.14,0.69,0.53
22311,0,0,-1.16,9.78,-0.53,-1.11,0.55,0.29
22364,0,0,-1.38,9.73,-0.07,-0.71,0.62,-0.01
22417,0,0,-0.95,9.51,0.27,-0.64,-0.38,1.18
22470,0,0,-0.58,9.86,0.82,-0.45,1.07,-0.24
22523,0,0,-0.22,9.66,0.82,-0.44,0.60,0.20
22576,0,0,-0.09,9.76,0.55,-0.26,0.17,0.39
22629,0,0,0.17,9.65,1.32,-0.12,0.54,0.03
22682,0,0,0.08,9.74,1.09,-0.30,-0.16,0.40
22735,0,0,0.17,9.83,1.17,-0.21,0.44,-0.08
22788,0,0,0.32,9.53,1.38,-0.04,0.54,-0.26
22841,0,0,0.15,9.62,0.80,-0.16,-0.32,0.22
22894,0,0,0.30,9.90,1.43,0.04,0.35,-0.17
22947,0,0,0.39,9.75,1.45,-0.06,-0.19,0.17
23000,0,0,0.23,9.77,1.26,0.09,-0.33,0.05
23053,0,0,0.22,9.62,1.43,0.20,-0.64,0.39
23106,0,0,0.68,9.70,0.88,0.78,-1.38,0.36
23159,0,0,0.77,9.67,0.92,0.82,-1.00,0.13
23212,0,0,0.79,9.84,0.29,0.62,-0.50,0.19
23265,0,0,0.76,9.81,0.10,0.47,-0.31,-0.02
23318,0,0,0.77,9.63,0.05,0.18,-0.35,0.02
23371,0,0,0.74,9.66,-0.16,0.14,-0.41,0.08
23424,0,0,1.00,9.94,-0.37,0.55,-0.51,0.47
23477,0,0,1.34,9.73,-0.85,0.54,-0.57,0.34
23530,0,0,0.88,9.34,-1.41,0.46,-0.58,0.20
23583,0,0,1.42,8.88,-1.43,0.74,-0.92,0.46
23636,0,0,1.33,9.28,-1.64,0.27,-0.68,0.43
23689,0,0,1.72,9.35,-1.98,0.45,-0.79,0.89
23742,0,0,1.54,9.59,-2.01,0.15,-0.43,0.03
23795,0,0,1.67,9.07,-1.87,0.13,-0.51,0.23
23848,0,0,1.43,9.31,-2.54,0.23,-0.54,0.26
23901,0,0,1.68,9.78,-2.11,0.30,-0.59,0.00
23954,0,0,1.81,9.32,-2.59,0.44,-0.55,0.49
24007,0,0,1.96,7.72,-2.67,0.53,-0.71,-0.30
24060,0,0,1.16,8.24,-2.88,0.17,-0.43,-0.24
24113,0,0,1.02,8.94,-3.37,0.08,-0.25,-0.13
24166,0,0,0.91,10.05,-3.46,0.23,-0.18,-0.75
24219,0,0,0.73,8.73,-3.45,0.41,-0.19,0.10
24272,0,0,0.23,7.10,-3.78,0.28,-0.15,0.45
24325,0,0,1.01,7.50,-3.40,0.08,0.82,1.18
24378,0,0,3.73,10.47,-3.90,0.51,0.16,0.98
24431,0,0,3.02,9.57,-3.33,0.24,-0.45,-0.02
24484,0,0,0.60,6.80,-4.78,0.43,-0.65,-0.50
24537,0,0,1.33,7.46,-4.33,-0.05,-0.02,-0.27
24590,0,0,2.04,9.19,-4.09,-0.09,0.11,-0.26
24643,0,0,1.41,8.22,-3.83,0.15,-0.08,-0.49
24696,0,0,0.84,7.64,-4.78,0.05,-0.02,-0.01
24749,0,0,2.21,8.54,-3.60,0.08,-0.08,0.33
24802,0,0,1.69,7.78,-3.93,0.06,-0.12,0.17
24855,0,0,1.45,8.41,-4.42,-0.05,0.05,-0.01
24908,0,0,2.49,8.56,-3.19,0.01,-0.52,0.39
24961,0,0,1.79,8.07,-4.07,-0.06,-0.18,0.29
25014,0,0,1.84,8.00,-4.47,-0.04,-0.15,0.24
25067,0,0,2.16,8.25,-4.23,0.05,-0.06,0.59
25120,0,0,2.76,4.66,-0.69,0.06,-0.73,1.62
25173,0,0,-0.48,-3.02,-5.25,-6.18,0.17,1.31
25226,0,0,13.29,7.72,-0.49,0.54,0.57,-4.80
25279,0,0,2.65,8.26,-1.26,0.26,-0.09,1.51
25332,0,0,3.53,8.45,-1.17,0.03,-0.26,-0.96
25385,0,0,4.89,8.88,-1.21,0.03,-0.16,-0.17
25438,0,0,4.56,8.77,-1.15,0.02,-0.11,0.30
25491,0,0,4.32,8.61,-1.28,0.02,-0.13,0.15
25544,0,0,4.39,8.62,-1.22,0.03,-0.14,0.03
25597,0,0,4.46,8.64,-1.22,0.03,-0.13,0.04
25650,0,0,4.47,8.63,-1.26,0.04,-0.13,0.05
25703,0,0,4.50,8.62,-1.23,0.03,-0.14,0.03
25756,0,0,4.51,8.61,-1.26,0.03,-0.14,0.03
25809,0,0,4.54,8.60,-1.28,0.03,-0.14,0.03
25862,0,0,4.57,8.56,-1.28,0.03,-0.13,0.03
25915,0,0,4.60,8.55,-1.28,0.03,-0.13,0.03
25968,0,0,4.61,8.55,-1.28,0.03,-0.13,0.02
26021,0,0,4.61,8.54,-1.31,0.03,-0.13,0.02
26074,0,0,4.63,8.51,-1.28,0.03,-0.13,0.02
26127,0,0,4.63,8.53,-1.30,0.03,-0.13,0.01
26180,0,0,4.65,8.51,-1.30,0.03,-0.13,0.02
26233,0,0,4.69,8.50,-1.35,0.03,-0.14,0.01
26286,0,0,4.67,8.50,-1.36,0.03,-0.13,0.04
26339,0,0,4.72,8.47,-1.31,0.03,-0.13,0.04
26392,0,0,4.69,8.51,-1.27,0.03,-0.13,0.03
26445,0,0,4.69,8.48,-1.31,0.02,-0.13,0.02
26498,0,0,4.71,8.49,-1.30,0.02,-0.14,0.01
26551,0,0,4.71,8.47,-1.32,0.03,-0.14,0.01
26604,0,0,4.75,8.45,-1.36,0.03,-0.13,0.00
26657,0,0,4.74,8.43,-1.31,0.03,-0.13,0.01
26710,0,0,4.77,8.45,-1.34,0.02,-0.13,0.01
26763,0,0,4.78,8.46,-1.35,0.03,-0.13,0.01
26816,0,0,4.77,8.43,-1.33,0.03,-0.13,0.01
26869,0,0,4.78,8.45,-1.36,0.02,-0.13,0.00
26922,0,0,4.79,8.42,-1.38,0.02,-0.13,0.00
26975,0,0,4.80,8.44,-1.38,0.02,-0.13,0.01
27028,0,0,4.80,8.43,-1.36,0.02,-0.13,0.00
27081,0,0,4.83,8.40,-1.36,0.02,-0.13,0.00
27134,0,0,4.82,8.41,-1.36,0.02,-0.13,0.00
27187,0,0,4.84,8.41,-1.41,0.02,-0.13,0.00
27240,0,0,4.83,8.40,-1.39,0.02,-0.13,0.00
27293,0,0,4.83,8.40,-1.38,0.02,-0.13,0.00
27346,0,0,4.87,8.39,-1.35,0.02,-0.13,0.01
27399,0,0,4.85,8.40,-1.40,0.02,-0.13,0.01
27452,0,0,4.87,8.37,-1.39,0.02,-0.13,-0.00
27505,0,0,4.87,8.37,-1.39,0.03,-0.13,0.00
27558,0,0,4.87,8.39,-1.39,0.03,-0.13,0.00
27611,0,0,4.98,8.38,-1.35,0.03,-0.14,-0.03
27664,0,0,4.92,8.38,-1.38,0.02,-0.13,0.02
27717,0,0,4.92,8.34,-1.41,0.02,-0.13,0.01
27770,0,0,4.92,8.35,-1.37,0.02,-0.14,-0.00
27823,0,0,4.92,8.35,-1.43,0.02,-0.13,-0.00
27876,0,0,4.94,8.36,-1.42,0.02,-0.13,-0.00
27929,0,0,4.92,8.37,-1.43,0.02,-0.13,-0.01
27982,0,0,4.92,8.35,-1.43,0.02,-0.13,-0.00
28035,0,0,4.90,8.34,-1.45,0.02,-0.13,0.01
28088,0,0,5.00,8.32,-1.33,0.03,-0.12,0.01
28141,0,0,4.92,8.35,-1.41,0.03,-0.13,-0.01
28194,0,0,4.93,8.36,-1.37,0.02,-0.13,0.01
28247,0,0,5.02,8.29,-1.45,0.02,-0.13,0.00
28300,0,0,4.97,8.33,-1.43,0.02,-0.13,-0.01
28353,0,0,4.96,8.35,-1.43,0.02,-0.13,0.00
28406,0,0,4.98,8.33,-1.41,0.02,-0.13,-0.00
28459,0,0,4.97,8.33,-1.43,0.02,-0.13,-0.00
28512,0,0,4.99,8.32,-1.40,0.02,-0.13,-0.00
28565,0,0,4.98,8.32,-1.38,0.02,-0.13,-0.00
28618,0,0,5.00,8.31,-1.39,0.02,-0.13,0.00
28671,0,0,5.03,8.29,-1.45,0.02,-0.13,-0.00
28724,0,0,5.01,8.30,-1.42,0.02,-0.13,-0.00
28777,0,0,5.00,8.32,-1.42,0.02,-0.13,-0.01
28830,0,0,5.01,8.30,-1.46,0.02,-0.13,-0.00
28883,0,0,5.00,8.30,-1.44,0.02,-0.13,-0.00
28936,0,0,5.02,8.28,-1.43,0.02,-0.13,-0.00
28989,0,0,5.04,8.29,-1.43,0.02,-0.13,-0.00
29042,0,0,5.03,8.28,-1.43,0.02,-0.13,-0.00
29095,0,0,5.02,8.26,-1.43,0.02,-0.13,-0.00
29148,0,0,5.01,8.28,-1.44,0.02,-0.13,-0.00
29201,0,0,5.04,8.27,-1.45,0.02,-0.13,-0.00
29254,0,0,5.05,8.29,-1.42,0.02,-0.13,-0.00
29307,0,0,5.04,8.27,-1.45,0.02,-0.13,-0.00
29360,0,0,5.06,8.27,-1.46,0.02,-0.13,-0.01
29413,0,0,5.07,8.27,-1.44,0.02,-0.13,-0.00
29466,0,0,5.09,8.28,-1.45,0.03,-0.13,-0.01
29519,0,0,5.01,8.35,-1.38,0.03,-0.12,0.07
29572,0,0,5.18,8.20,-1.51,0.02,-0.13,0.01
29625,0,0,4.97,8.32,-1.41,0.01,-0.14,-0.04
29678,0,0,5.05,8.24,-1.58,0.03,-0.13,0.02
29731,0,0,5.18,8.24,-1.42,0.04,-0.13,-0.01
29784,0,0,5.03,8.32,-1.46,0.01,-0.13,-0.00
29837,0,0,5.09,8.23,-1.56,0.03,-0.12,0.02
29890,0,0,4.83,8.54,-1.58,0.03,-0.17,-0.11
29943,0,0,5.24,8.41,-1.41,0.02,-0.13,-0.02
29996,0,0,4.99,8.33,-1.46,0.02,-0.14,0.00
30049,0,0,5.07,8.20,-1.63,0.02,-0.14,-0.02
30102,0,0,5.19,8.24,-1.42,0.03,-0.12,-0.04
30155,0,0,5.09,8.27,-1.39,0.02,-0.13,-0.01
30208,0,0,5.09,8.24,-1.42,0.02,-0.13,0.01
30261,0,0,5.16,8.18,-1.48,0.02,-0.13,0.00
30314,0,0,5.14,8.21,-1.44,0.02,-0.13,-0.01
30367,0,0,5.13,8.21,-1.45,0.02,-0.13,-0.00
30420,0,0,5.19,8.18,-1.47,0.02,-0.13,-0.01
30473,0,0,5.09,8.23,-1.46,0.02,-0.13,-0.02
30526,0,0,5.13,8.23,-1.46,0.02,-0.13,0.00
30579,0,0,5.15,8.22,-1.47,0.02,-0.13,-0.01
30632,0,0,5.16,8.23,-1.45,0.02,-0.13,-0.01
30685,0,0,5.15,8.24,-1.48,0.02,-0.13,-0.02
30738,0,0,5.15,8.22,-1.49,0.02,-0.13,-0.02
30791,0,0,5.14,8.22,-1.46,0.02,-0.13,-0.01
30844,0,0,5.16,8.20,-1.47,0.02,-0.13,-0.01
30897,0,0,5.16,8.20,-1.47,0.02,-0.13,-0.01
30950,0,0,5.16,8.22,-1.45,0.02,-0.13,-0.01
31003,0,0,5.15,8.20,-1.48,0.02,-0.13,-0.00
31056,0,0,5.17,8.21,-1.44,0.02,-0.13,-0.00
31109,0,0,5.17,8.19,-1.43,0.02,-0.13,0.00
31162,0,0,5.18,8.20,-1.48,0.02,-0.13,-0.01
31215,0,0,5.18,8.18,-1.48,0.02,-0.13,-0.01
31268,0,0,5.18,8.19,-1.48,0.02,-0.13,-0.01
31321,0,0,5.18,8.18,-1.44,0.02,-0.13,-0.01
31374,0,0,5.19,8.20,-1.46,0.02,-0.13,-0.01
31427,0,0,5.19,8.19,-1.47,0.02,-0.13,-0.00
31480,0,0,5.19,8.21,-1.48,0.02,-0.13,-0.01
31533,0,0,5.20,8.19,-1.52,0.02,-0.13,-0.01
31586,0,0,5.20,8.17,-1.45,0.02,-0.13,-0.01
31639,0,0,5.18,8.17,-1.46,0.02,-0.13,-0.00
31692,0,0,5.20,8.17,-1.48,0.02,-0.13,-0.01
31745,0,0,5.21,8.19,-1.49,0.02,-0.13,-0.01
31798,0,0,5.20,8.17,-1.50,0.02,-0.13,-0.00
31851,0,0,5.21,8.17,-1.47,0.02,-0.13,-0.01
31904,0,0,5.20,8.18,-1.48,0.02,-0.13,-0.01
31957,0,0,5.22,8.17,-1.51,0.02,-0.13,-0.01
32010,0,0,5.22,8.16,-1.50,0.02,-0.13,-0.01
32063,0,0,5.23,8.17,-1.47,0.02,-0.13,-0.01
32116,0,0,5.20,8.18,-1.46,0.02,-0.13,-0.01
32169,0,0,5.22,8.15,-1.51,0.02,-0.13,-0.00
32222,0,0,5.21,8.16,-1.47,0.02,-0.13,-0.00
32275,0,0,5.23,8.17,-1.47,0.02,-0.13,-0.01
32328,0,0,5.23,8.17,-1.48,0.02,-0.13,-0.01
32381,0,0,5.24,8.15,-1.51,0.02,-0.13,-0.01
32434,0,0,5.23,8.17,-1.48,0.02,-0.13,-0.01
32487,0,0,5.24,8.16,-1.50,0.02,-0.13,-0.01
32540,0,0,5.24,8.16,-1.46,0.02,-0.13,-0.00
32593,0,0,5.25,8.17,-1.45,0.02,-0.13,-0.01
32646,0,0,5.26,8.14,-1.49,0.02,-0.13,-0.01
32699,0,0,5.25,8.14,-1.48,0.02,-0.13,-0.01
32752,0,0,5.24,8.15,-1.53,0.02,-0.13,-0.01
32805,0,0,5.26,8.15,-1.50,0.02,-0.13,-0.01
32858,0,0,5.23,8.15,-1.46,0.02,-0.13,-0.01
32911,0,0,5.23,8.17,-1.49,0.02,-0.13,-0.01
32964,0,0,5.24,8.13,-1.49,0.02,-0.13,-0.00
33017,0,0,5.27,8.13,-1.50,0.02,-0.13,-0.01
33070,0,0,5.26,8.14,-1.50,0.02,-0.13,-0.00
33123,0,0,5.27,8.15,-1.48,0.02,-0.13,-0.01
33176,0,0,5.25,8.14,-1.51,0.02,-0.13,-0.01
33229,0,0,5.27,8.12,-1.49,0.02,-0.13,-0.01
33282,0,0,5.27,8.14,-1.49,0.02,-0.13,-0.01
33335,0,0,5.26,8.15,-1.51,0.02,-0.13,-0.01
33388,0,0,5.27,8.14,-1.51,0.02,-0.13,-0.01
33441,0,0,5.27,8.11,-1.51,0.02,-0.13,-0.00
33494,0,0,5.27,8.14,-1.50,0.02,-0.13,-0.01
33547,0,0,5.28,8.12,-1.50,0.02,-0.13,-0.01
33600,0,0,5.30,8.12,-1.48,0.02,-0.13,-0.01
33653,0,0,5.29,8.12,-1.49,0.02,-0.13,-0.01
33706,0,0,5.28,8.13,-1.53,0.02,-0.13,-0.01
33759,0,0,5.29,8.14,-1.50,0.02,-0.13,-0.01
33812,0,0,5.27,8.11,-1.50,0.02,-0.13,-0.00
33865,0,0,5.30,8.12,-1.50,0.02,-0.13,-0.01
33918,0,0,5.31,8.11,-1.53,0.02,-0.13,-0.00
33971,0,0,5.29,8.10,-1.48,0.02,-0.13,-0.01
34024,0,0,5.29,8.13,-1.48,0.02,-0.13,-0.01
34077,0,0,5.27,8.09,-1.47,0.02,-0.13,-0.01
34130,0,0,5.29,8.13,-1.48,0.02,-0.13,-0.01
34183,0,0,5.31,8.11,-1.52,0.02,-0.13,-0.01
34236,0,0,5.31,8.11,-1.52,0.02,-0.13,-0.01
34289,0,0,5.30,8.10,-1.52,0.02,-0.13,-0.01
34342,0,0,5.31,8.09,-1.51,0.02,-0.13,-0.01
34395,0,0,5.30,8.12,-1.53,0.02,-0.13,-0.01
34448,0,0,5.31,8.11,-1.50,0.02,-0.13,-0.01
34501,0,0,5.31,8.13,-1.51,0.02,-0.13,-0.01
34554,0,0,5.32,8.12,-1.51,0.02,-0.13,-0.01
34607,0,0,5.31,8.10,-1.50,0.02,-0.13,-0.01
34660,0,0,5.29,8.11,-1.49,0.02,-0.13,-0.01
34713,0,0,5.30,8.09,-1.50,0.02,-0.13,-0.01
34766,0,0,5.32,8.09,-1.53,0.02,-0.13,-0.01
34819,0,0,5.33,8.09,-1.52,0.02,-0.13,-0.01
34872,0,0,5.32,8.09,-1.47,0.02,-0.13,-0.01
34925,0,0,5.31,8.12,-1.51,0.02,-0.13,-0.01
34978,0,0,5.33,8.11,-1.50,0.02,-0.13,-0.01
35031,0,0,5.31,8.11,-1.49,0.02,-0.13,-0.00
35084,0,0,5.32,8.06,-1.55,0.02,-0.13,-0.01
35137,0,0,5.32,8.10,-1.49,0.02,-0.13,-0.01
35190,0,0,5.32,8.09,-1.48,0.02,-0.13,-0.01
35243,0,0,5.32,8.09,-1.52,0.02,-0.13,-0.00
35296,0,0,5.34,8.09,-1.47,0.02,-0.13,-0.01
35349,0,0,5.36,8.08,-1.51,0.02,-0.13,-0.01
35402,0,0,5.31,8.10,-1.53,0.02,-0.13,-0.01
35455,0,0,5.34,8.10,-1.52,0.02,-0.13,-0.01
35508,0,0,5.33,8.07,-1.55,0.02,-0.13,-0.01
35561,0,0,5.34,8.09,-1.50,0.02,-0.13,-0.01
35614,0,0,5.34,8.09,-1.54,0.02,-0.13,-0.01
35667,0,0,5.33,8.06,-1.53,0.02,-0.13,-0.01
35720,0,0,5.36,8.07,-1.49,0.02,-0.13,-0.01
35773,0,0,5.34,8.08,-1.48,0.02,-0.13,-0.01
35826,0,0,5.35,8.07,-1.54,0.02,-0.13,-0.01
35879,0,0,5.36,8.09,-1.50,0.02,-0.13,-0.01
35932,0,0,5.36,8.08,-1.53,0.02,-0.13,-0.01
35985,0,0,5.37,8.07,-1.54,0.02,-0.13,-0.01
36038,0,0,5.34,8.07,-1.51,0.02,-0.13,-0.01
36091,0,0,5.37,8.07,-1.52,0.02,-0.13,-0.01
36144,0,0,5.36,8.07,-1.51,0.02,-0.13,-0.01
36197,0,0,5.36,8.07,-1.49,0.02,-0.13,-0.01
36250,0,0,5.37,8.09,-1.50,0.02,-0.13,-0.00
36303,0,0,5.36,8.09,-1.52,0.02,-0.13,-0.01
36356,0,0,5.36,8.07,-1.53,0.02,-0.13,-0.01
36409,0,0,5.36,8.09,-1.55,0.02,-0.13,-0.01
36462,0,0,5.37,8.05,-1.51,0.02,-0.13,-0.01
36515,0,0,5.37,8.08,-1.52,0.02,-0.13,-0.01
36568,0,0,5.38,8.06,-1.52,0.02,-0.13,-0.01
36621,0,0,5.39,8.07,-1.53,0.02,-0.13,-0.01
36674,0,0,5.40,8.05,-1.49,0.02,-0.13,-0.01
36727,0,0,5.36,8.06,-1.54,0.02,-0.13,-0.01
36780,0,0,5.39,8.06,-1.53,0.02,-0.13,-0.01
36833,0,0,5.39,8.07,-1.53,0.02,-0.13,-0.01
36886,0,0,5.39,8.05,-1.50,0.02,-0.13,-0.01
36939,0,0,5.36,8.06,-1.51,0.02,-0.13,-0.01
36992,0,0,5.40,8.07,-1.53,0.02,-0.13,-0.02
37045,0,0,5.39,8.05,-1.53,0.02,-0.13,-0.01
37098,0,0,5.38,8.07,-1.55,0.02,-0.13,-0.01
37151,0,0,5.39,8.08,-1.55,0.02,-0.13,-0.01
37204,0,0,5.36,8.06,-1.53,0.02,-0.13,-0.01
37257,0,0,5.38,8.06,-1.52,0.02,-0.13,-0.00
37310,0,0,5.39,8.05,-1.53,0.02,-0.13,-0.02
37363,0,0,5.37,8.05,-1.53,0.02,-0.13,-0.01
37416,0,0,5.39,8.07,-1.52,0.02,-0.13,-0.01
37469,0,0,5.38,8.05,-1.53,0.02,-0.13,-0.01
37522,0,0,5.39,8.03,-1.52,0.02,-0.13,-0.00
37575,0,0,5.41,8.05,-1.47,0.02,-0.13,-0.01
37628,0,0,5.38,8.07,-1.50,0.02,-0.13,-0.01
37681,0,0,5.42,8.03,-1.51,0.02,-0.13,-0.01
37734,0,0,5.41,8.06,-1.54,0.02,-0.13,-0.01
37787,0,0,5.40,8.06,-1.56,0.02,-0.13,-0.01
37840,0,0,5.39,8.04,-1.53,0.02,-0.13,-0.01
37893,0,0,5.41,8.04,-1.51,0.02,-0.13,-0.01
37946,0,0,5.41,8.03,-1.56,0.02,-0.13,-0.01
37999,0,0,5.40,8.06,-1.51,0.02,-0.13,-0.01
38052,0,0,5.41,8.05,-1.53,0.02,-0.13,-0.01
38105,0,0,5.41,8.03,-1.50,0.02,-0.13,-0.01
38158,0,0,5.40,8.05,-1.54,0.02,-0.13,-0.01
38211,0,0,5.42,8.03,-1.53,0.02,-0.13,-0.01
38264,0,0,5.41,8.04,-1.54,0.02,-0.13,-0.01
38317,0,0,5.40,8.04,-1.50,0.02,-0.13,-0.00
38370,0,0,5.42,8.05,-1.55,0.02,-0.13,-0.01
38423,0,0,5.41,8.02,-1.54,0.02,-0.13,-0.01
38476,0,0,5.42,8.05,-1.54,0.02,-0.13,-0.01
38529,0,0,5.44,8.01,-1.50,0.02,-0.13,-0.00
38582,0,0,5.39,8.05,-1.48,0.02,-0.13,-0.02
38635,0,0,5.42,8.03,-1.58,0.02,-0.13,-0.01
38688,0,0,5.45,8.03,-1.53,0.02,-0.13,-0.01
38741,0,0,5.44,8.01,-1.53,0.02,-0.13,-0.01
38794,0,0,5.43,8.01,-1.53,0.02,-0.13,-0.01
38847,0,0,5.40,8.03,-1.55,0.02,-0.13,-0.01
38900,0,0,5.46,8.01,-1.53,0.02,-0.13,-0.00
38953,0,0,5.42,8.04,-1.50,0.02,-0.13,-0.01
39006,0,0,5.44,8.03,-1.54,0.02,-0.13,-0.01
39059,0,0,5.44,8.01,-1.53,0.02,-0.13,-0.01
39112,0,0,5.43,8.03,-1.56,0.02,-0.13,-0.01
39165,0,0,5.43,8.06,-1.53,0.02,-0.13,-0.01
39218,0,0,5.46,8.00,-1.53,0.02,-0.13,-0.01
39271,0,0,5.41,8.03,-1.55,0.02,-0.13,-0.01
39324,0,0,5.46,8.00,-1.53,0.02,-0.13,-0.01
39377,0,0,5.43,8.02,-1.53,0.02,-0.13,-0.01
39430,0,0,5.41,8.01,-1.52,0.02,-0.13,-0.00
39483,0,0,5.46,8.00,-1.57,0.02,-0.13,-0.01
39536,0,0,5.45,8.02,-1.56,0.02,-0.13,-0.01
39589,0,0,5.45,8.02,-1.53,0.02,-0.13,-0.01
39642,0,0,5.44,8.01,-1.51,0.02,-0.13,-0.01
39695,0,0,5.45,8.01,-1.53,0.02,-0.13,-0.01
39748,0,0,5.43,8.02,-1.53,0.02,-0.13,-0.01
39801,0,0,5.44,7.99,-1.55,0.02,-0.13,-0.00
39854,0,0,5.42,8.02,-1.56,0.02,-0.13,-0.01
39907,0,0,5.46,8.00,-1.54,0.02,-0.13,-0.01
39960,0,0,5.46,8.02,-1.55,0.02,-0.13,-0.01
40013,0,0,5.47,7.99,-1.51,0.02,-0.13,-0.01
40066,0,0,5.45,8.00,-1.55,0.02,-0.13,-0.01
40119,0,0,5.45,8.01,-1.57,0.02,-0.13,-0.01
40172,0,0,5.46,8.00,-1.53,0.02,-0.13,-0.01
40225,0,0,5.47,7.99,-1.52,0.02,-0.13,-0.01
40278,0,0,5.43,8.01,-1.55,0.02,-0.13,-0.01
40331,0,0,5.46,8.00,-1.53,0.02,-0.13,-0.01
40384,0,0,5.48,7.99,-1.53,0.02,-0.13,-0.01
40437,0,0,5.47,7.98,-1.54,0.02,-0.13,-0.01
40490,0,0,5.48,8.00,-1.57,0.02,-0.13,-0.01
40543,0,0,5.47,8.00,-1.56,0.02,-0.13,-0.01
40596,0,0,5.47,7.99,-1.54,0.02,-0.13,-0.01
40649,0,0,5.47,8.01,-1.54,0.02,-0.13,-0.01
40702,0,0,5.48,8.00,-1.56,0.02,-0.13,-0.01
40755,0,0,5.49,8.01,-1.53,0.02,-0.13,-0.01
40808,0,0,5.46,7.99,-1.58,0.02,-0.13,-0.01
40861,0,0,5.48,7.98,-1.55,0.02,-0.13,-0.01
40914,0,0,5.49,7.99,-1.55,0.02,-0.13,-0.01
40967,0,0,5.48,8.01,-1.54,0.02,-0.13,-0.01
41020,0,0,5.48,7.99,-1.53,0.02,-0.13,-0.01
41073,0,0,5.46,7.99,-1.52,0.02,-0.13,-0.01
41126,0,0,5.49,7.99,-1.55,0.02,-0.13,-0.01
41179,0,0,5.48,8.00,-1.56,0.02,-0.13,-0.01
41232,0,0,5.48,7.97,-1.56,0.02,-0.13,-0.01
41285,0,0,5.50,7.99,-1.53,0.02,-0.13,-0.01
41338,0,0,5.48,7.98,-1.55,0.02,-0.13,-0.01
41391,0,0,5.47,7.99,-1.54,0.02,-0.13,-0.01
41444,0,0,5.49,7.98,-1.54,0.02,-0.13,-0.01
41497,0,0,5.47,7.99,-1.54,0.02,-0.13,-0.01
41550,0,0,5.49,8.00,-1.53,0.02,-0.13,-0.01
41603,0,0,5.48,7.97,-1.54,0.02,-0.13,-0.01
41656,0,0,5.48,7.99,-1.51,0.02,-0.13,-0.01
41709,0,0,5.50,7.96,-1.52,0.02,-0.13,-0.01
41762,0,0,5.49,7.98,-1.56,0.02,-0.13,-0.01
41815,0,0,5.49,7.97,-1.53,0.02,-0.13,-0.01
41868,0,0,5.50,7.98,-1.54,0.02,-0.13,-0.01
41921,0,0,5.49,7.97,-1.56,0.02,-0.13,-0.01
41974,0,0,5.50,7.98,-1.53,0.02,-0.13,-0.01
42027,0,0,5.50,7.98,-1.54,0.02,-0.13,-0.01
42080,0,0,5.49,7.98,-1.53,0.02,-0.13,-0.01
42133,0,0,5.50,7.98,-1.57,0.02,-0.13,-0.01
42186,0,0,5.49,7.99,-1.55,0.02,-0.13,-0.01
42239,0,0,5.48,7.99,-1.56,0.02,-0.13,-0.01
42292,0,0,5.48,7.98,-1.56,0.02,-0.13,-0.01
42345,0,0,5.52,7.97,-1.55,0.02,-0.13,-0.01
42398,0,0,5.50,7.98,-1.54,0.02,-0.13,-0.01
42451,0,0,5.50,7.97,-1.54,0.02,-0.13,-0.01
42504,0,0,5.49,7.95,-1.56,0.02,-0.13,-0.01
42557,0,0,5.50,7.98,-1.53,0.02,-0.13,-0.01
42610,0,0,5.51,7.99,-1.56,0.02,-0.13,-0.01
42663,0,0,5.50,7.98,-1.54,0.02,-0.13,-0.01
42716,0,0,5.50,7.98,-1.57,0.02,-0.13,-0.01
42769,0,0,5.51,7.98,-1.54,0.02,-0.13,-0.01
42822,0,0,5.51,7.98,-1.55,0.02,-0.13,-0.01
42875,0,0,5.49,7.97,-1.55,0.02,-0.13,-0.01
42928,0,0,5.50,7.97,-1.54,0.02,-0.13,-0.01
42981,0,0,5.51,7.99,-1.57,0.02,-0.13,-0.01
43034,0,0,5.52,7.97,-1.56,0.02,-0.13,-0.01
43087,0,0,5.52,7.98,-1.56,0.02,-0.13,-0.01
43140,0,0,5.53,7.97,-1.57,0.02,-0.13,-0.01
43193,0,0,5.50,7.97,-1.55,0.02,-0.13,-0.01
43246,0,0,5.52,7.97,-1.57,0.02,-0.13,-0.01
43299,0,0,5.51,7.96,-1.53,0.02,-0.13,-0.01
43352,0,0,5.51,7.96,-1.54,0.02,-0.13,-0.01
43405,0,0,5.50,7.97,-1.53,0.02,-0.13,-0.01
43458,0,0,5.51,7.99,-1.54,0.02,-0.13,-0.01
43511,0,0,5.52,7.96,-1.53,0.02,-0.13,-0.01
43564,0,0,5.53,7.95,-1.54,0.02,-0.13,-0.01
43617,0,0,5.52,7.98,-1.55,0.02,-0.13,-0.01
43670,0,0,5.50,7.96,-1.56,0.02,-0.13,-0.01
43723,0,0,5.54,7.97,-1.55,0.02,-0.13,-0.01
43776,0,0,5.53,7.94,-1.54,0.02,-0.13,-0.01
43829,0,0,5.51,7.98,-1.57,0.02,-0.13,-0.01
43882,0,0,5.51,7.97,-1.58,0.02,-0.13,-0.01
43935,0,0,5.52,7.96,-1.55,0.02,-0.13,-0.01
43988,0,0,5.50,7.96,-1.53,0.02,-0.13,-0.01
44041,0,0,5.53,7.97,-1.53,0.02,-0.13,-0.01
44094,0,0,5.52,7.96,-1.57,0.02,-0.13,-0.01
44147,0,0,5.53,7.95,-1.56,0.02,-0.13,-0.01
44200,0,0,5.51,7.96,-1.56,0.02,-0.13,-0.01
44253,0,0,5.52,7.95,-1.55,0.02,-0.13,-0.01
44306,0,0,5.51,7.94,-1.54,0.02,-0.13,-0.01
44359,0,0,5.53,7.98,-1.56,0.02,-0.13,-0.01
44412,0,0,5.51,7.97,-1.53,0.02,-0.13,-0.01
44465,0,0,5.52,7.95,-1.57,0.02,-0.13,-0.01
44518,0,0,5.52,7.96,-1.55,0.02,-0.13,-0.01
44571,0,0,5.51,7.97,-1.55,0.02,-0.13,-0.01
44624,0,0,5.53,7.97,-1.55,0.02,-0.13,-0.01
44677,0,0,5.54,7.94,-1.55,0.02,-0.13,-0.01
44730,0,0,5.54,7.96,-1.56,0.02,-0.13,-0.01
44783,0,0,5.53,7.95,-1.52,0.02,-0.13,-0.01
44836,0,0,5.53,7.97,-1.58,0.02,-0.13,-0.01
44889,0,0,5.52,7.96,-1.57,0.02,-0.13,-0.01
44942,0,0,5.52,7.94,-1.55,0.02,-0.13,-0.01
44995,0,0,5.51,7.94,-1.53,0.02,-0.13,-0.01
45048,0,0,5.56,7.96,-1.52,0.02,-0.13,-0.01
45101,0,0,5.52,7.96,-1.58,0.02,-0.13,-0.01
45154,0,0,5.55,7.93,-1.56,0.02,-0.13,-0.01
45207,0,0,5.55,7.96,-1.57,0.02,-0.13,-0.01
45260,0,0,5.53,7.94,-1.55,0.02,-0.13,-0.01
45313,0,0,5.54,7.93,-1.54,0.02,-0.13,-0.01
45366,0,0,5.54,7.94,-1.54,0.02,-0.13,-0.01
45419,0,0,5.55,7.96,-1.56,0.02,-0.13,-0.01
45472,0,0,5.54,7.93,-1.56,0.02,-0.13,-0.01
45525,0,0,5.54,7.95,-1.60,0.02,-0.13,-0.01
45578,0,0,5.56,7.93,-1.51,0.02,-0.13,-0.01
45631,0,0,5.51,7.96,-1.58,0.02,-0.13,-0.02
45684,0,0,5.51,7.93,-1.60,0.02,-0.13,-0.02
45737,0,0,5.53,7.96,-1.53,0.02,-0.13,-0.02
45790,0,0,5.54,7.95,-1.53,0.02,-0.13,-0.01
45843,0,0,5.56,7.95,-1.59,0.02,-0.13,-0.02
45896,0,0,5.56,7.95,-1.54,0.02,-0.13,-0.00
45949,0,0,5.56,7.92,-1.63,0.02,-0.13,-0.01
46002,0,0,5.53,7.95,-1.50,0.02,-0.13,-0.01
46055,0,0,5.53,7.92,-1.57,0.02,-0.13,-0.01
46108,0,0,5.57,7.96,-1.54,0.02,-0.13,-0.01
46161,0,0,5.53,7.95,-1.54,0.02,-0.13,-0.01
46214,0,0,5.54,7.95,-1.54,0.02,-0.13,-0.01
46267,0,0,5.57,7.91,-1.53,0.02,-0.13,-0.01
46320,0,0,5.54,7.94,-1.55,0.02,-0.13,-0.01
46373,0,0,5.55,7.93,-1.57,0.02,-0.13,-0.01
46426,0,0,5.53,7.93,-1.54,0.02,-0.13,-0.01
46479,0,0,5.54,7.95,-1.56,0.02,-0.13,-0.01
46532,0,0,5.53,7.96,-1.59,0.02,-0.13,-0.01
46585,0,0,5.49,7.86,-1.63,-0.01,-0.14,-0.04
46638,0,0,5.53,7.91,-1.71,0.01,-0.10,-0.00
46691,0,0,5.58,8.02,-1.45,0.01,-0.13,-0.04
46744,0,0,5.60,7.97,-1.60,0.03,-0.13,-0.01
46797,0,0,5.54,7.98,-1.57,0.02,-0.13,-0.00
46850,0,0,5.55,7.94,-1.57,0.02,-0.13,-0.00
46903,0,0,5.53,7.95,-1.54,0.02,-0.13,-0.01
46956,0,0,5.60,7.91,-1.57,0.02,-0.13,-0.00
47009,0,0,5.55,7.92,-1.56,0.02,-0.13,-0.00
47062,0,0,5.55,7.92,-1.60,0.02,-0.13,-0.01
47115,0,0,5.58,7.93,-1.55,0.02,-0.12,-0.01
47168,0,0,5.54,7.91,-1.56,0.02,-0.13,-0.01
47221,0,0,5.57,7.93,-1.55,0.02,-0.13,-0.01
47274,0,0,5.55,7.94,-1.56,0.02,-0.13,-0.01
47327,0,0,5.57,7.94,-1.55,0.02,-0.13,-0.01
47380,0,0,5.57,7.93,-1.55,0.02,-0.13,-0.01
47433,0,0,5.56,7.93,-1.58,0.02,-0.13,-0.01
47486,0,0,5.58,7.92,-1.56,0.02,-0.13,-0.01
47539,0,0,5.58,7.93,-1.61,0.02,-0.13,-0.01
47592,0,0,5.55,7.95,-1.54,0.02,-0.13,-0.01
47645,0,0,5.58,7.93,-1.56,0.02,-0.13,-0.01
47698,0,0,5.56,7.96,-1.54,0.02,-0.13,-0.01
47751,0,0,5.57,7.91,-1.57,0.02,-0.13,-0.01
47804,0,0,5.57,7.90,-1.55,0.02,-0.13,-0.01
47857,0,0,5.55,7.92,-1.56,0.02,-0.13,-0.01
47910,0,0,5.56,7.92,-1.59,0.02,-0.13,-0.01
47963,0,0,5.57,7.92,-1.59,0.02,-0.13,-0.02
48016,0,0,5.55,7.93,-1.56,0.02,-0.13,-0.02
48069,0,0,5.54,7.94,-1.58,0.02,-0.13,-0.01
48122,0,0,5.56,7.92,-1.58,0.02,-0.13,-0.01
48175,0,0,5.58,7.93,-1.55,0.02,-0.13,-0.01
48228,0,0,5.56,7.95,-1.55,0.02,-0.13,-0.01
48281,0,0,5.59,7.91,-1.59,0.02,-0.13,-0.01
48334,0,0,5.58,7.94,-1.55,0.02,-0.13,-0.01
48387,0,0,5.56,7.93,-1.56,0.02,-0.13,-0.01
48440,0,0,5.59,7.92,-1.55,0.02,-0.13,-0.01
48493,0,0,5.56,7.94,-1.53,0.02,-0.13,-0.01
48546,0,0,5.61,7.89,-1.62,0.02,-0.13,-0.01
48599,0,0,5.55,7.95,-1.56,0.02,-0.13,-0.01
48652,0,0,5.59,7.92,-1.56,0.02,-0.13,-0.01
48705,0,0,5.58,7.93,-1.56,0.02,-0.13,-0.02
48758,0,0,5.56,7.94,-1.58,0.02,-0.13,-0.02
48811,0,0,5.57,7.93,-1.55,0.02,-0.13,-0.01
48864,0,0,5.58,7.92,-1.58,0.02,-0.13,-0.01
48917,0,0,5.58,7.94,-1.57,0.02,-0.13,-0.01
48970,0,0,5.58,7.91,-1.58,0.02,-0.13,-0.01
49023,0,0,5.59,7.91,-1.55,0.02,-0.13,-0.01
49076,0,0,5.57,7.92,-1.58,0.02,-0.13,-0.01
49129,0,0,5.59,7.92,-1.59,0.02,-0.13,-0.01
49182,0,0,5.60,7.91,-1.52,0.02,-0.13,-0.01
49235,0,0,5.57,7.93,-1.58,0.02,-0.13,-0.01
49288,0,0,5.57,7.92,-1.55,0.02,-0.13,-0.01
49341,0,0,5.60,7.90,-1.56,0.02,-0.13,-0.01
49394,0,0,5.62,7.90,-1.58,0.02,-0.13,-0.01
49447,0,0,5.57,7.92,-1.55,0.02,-0.13,-0.01
49500,0,0,5.60,7.93,-1.57,0.02,-0.13,-0.01
49553,0,0,5.51,7.98,-1.57,0.02,-0.13,-0.01
49606,0,0,5.60,7.95,-1.48,0.02,-0.13,-0.01
49659,0,0,5.65,7.85,-1.66,0.01,-0.13,-0.02
49712,0,0,5.50,7.98,-1.54,0.02,-0.13,-0.02
49765,0,0,5.56,7.96,-1.51,0.02,-0.13,-0.00
49818,0,0,5.58,7.88,-1.58,0.01,-0.12,-0.02
49871,0,0,5.57,7.90,-1.56,0.02,-0.13,-0.02
49924,0,0,5.60,7.91,-1.57,0.02,-0.13,-0.01
49977,0,0,5.62,7.90,-1.56,0.02,-0.13,-0.01
50030,0,0,5.58,7.90,-1.56,0.02,-0.13,-0.01
50083,0,0,5.61,7.92,-1.61,0.02,-0.13,-0.01
50136,0,0,5.60,7.91,-1.58,0.02,-0.13,-0.01
50189,0,0,5.59,7.89,-1.57,0.02,-0.13,-0.01
50242,0,0,5.60,7.91,-1.58,0.02,-0.13,-0.01
50295,0,0,5.57,7.92,-1.55,0.02,-0.13,-0.01
50348,0,0,5.61,7.88,-1.53,0.02,-0.13,-0.01
50401,0,0,5.60,7.91,-1.55,0.02,-0.13,-0.01
50454,0,0,5.59,7.90,-1.56,0.02,-0.13,-0.01
50507,0,0,5.60,7.92,-1.57,0.02,-0.13,-0.01
50560,0,0,5.60,7.92,-1.57,0.02,-0.13,-0.01
50613,0,0,5.60,7.91,-1.54,0.02,-0.13,-0.01
50666,0,0,5.58,7.91,-1.57,0.02,-0.13,-0.01
50719,0,0,5.59,7.89,-1.58,0.02,-0.13,-0.01
50772,0,0,5.59,7.91,-1.56,0.02,-0.13,-0.01
50825,0,0,5.60,7.90,-1.57,0.02,-0.13,-0.01
50878,0,0,5.59,7.92,-1.58,0.02,-0.13,-0.01
50931,0,0,5.60,7.92,-1.58,0.02,-0.13,-0.01
50984,0,0,5.62,7.94,-1.60,0.03,-0.13,0.02
51037,0,0,5.64,7.91,-1.56,0.02,-0.13,-0.01
51090,0,0,5.58,7.91,-1.58,0.03,-0.13,-0.02
51143,0,0,5.60,7.92,-1.58,0.03,-0.13,0.01
51196,0,0,5.67,7.92,-1.56,0.02,-0.13,-0.00
51249,0,0,5.68,7.94,-1.57,0.04,-0.14,-0.03
51302,0,0,4.82,7.85,-1.67,-0.03,-0.08,0.01
51355,0,0,6.14,7.81,-1.50,0.06,-0.07,-0.12
51408,0,0,5.50,8.12,-1.64,0.02,-0.12,-0.15
51461,0,0,4.70,8.01,-1.58,0.12,0.05,-0.55
51514,0,0,4.80,8.19,-1.40,0.23,0.06,-1.08
51567,0,0,5.23,8.21,-1.77,0.02,-0.12,-0.23
51620,0,0,5.01,8.46,-1.64,0.00,-0.09,0.07
51673,0,0,4.44,8.34,-1.62,0.01,-0.10,-0.01
51726,0,0,4.72,8.39,-1.60,0.01,-0.08,0.19
51779,0,0,4.71,8.21,-1.69,0.17,0.30,1.13
51832,0,0,5.49,7.92,-1.50,0.16,0.21,0.81
51885,0,0,6.04,7.56,-1.43,0.35,0.46,1.47
51938,0,0,6.37,7.09,-1.51,0.36,0.48,0.87
51991,0,0,6.96,6.52,-1.01,0.55,0.71,1.68
52044,0,0,8.26,6.40,-0.67,-0.06,0.54,-0.04
52097,0,0,7.46,5.75,-1.72,-0.49,0.88,0.88
52150,0,0,4.88,3.86,2.03,-2.29,0.81,-5.84
52203,0,0,10.67,8.44,-1.82,-0.65,0.45,-1.50
52256,0,0,5.46,8.12,1.09,-0.03,-0.12,0.02
52309,0,0,6.63,7.63,0.86,0.01,-0.16,0.22
52362,0,0,6.53,7.65,0.94,-0.14,-0.01,0.08
52415,0,0,6.27,7.77,1.38,-0.36,-0.20,-1.18
52468,0,0,5.89,8.03,1.29,-0.09,-0.11,-0.03
52521,0,0,5.97,8.01,1.34,-0.12,-0.11,0.00
52574,0,0,6.03,7.84,1.56,-0.14,-0.13,-0.02
52627,0,0,6.06,7.90,1.63,-0.29,0.07,0.00
52680,0,0,6.07,8.00,1.78,-0.34,-0.04,-0.08
52733,0,0,5.80,7.97,1.87,-0.31,0.08,-0.06
52786,0,0,5.49,8.24,2.21,-0.23,0.04,-0.09
52839,0,0,5.22,8.13,1.94,0.05,-0.54,-0.81
52892,0,0,5.39,8.30,2.07,0.02,-0.40,-0.39
52945,0,0,5.54,8.21,2.26,0.03,-0.21,-0.06
52998,0,0,5.43,8.27,2.08,0.06,-0.14,0.03
53051,0,0,5.38,8.32,2.15,-0.08,-0.04,-0.01
53104,0,0,5.66,8.42,2.31,-0.05,0.24,-0.29
53157,0,0,7.08,8.59,2.58,0.01,0.10,-0.67
53210,0,0,5.20,8.60,2.39,-0.10,0.15,-0.18
53263,0,0,4.08,8.95,2.77,-0.03,0.33,-0.34
53316,0,0,4.39,8.70,2.66,0.02,0.43,0.36
53369,0,0,3.56,7.77,2.63,0.22,0.22,-1.04
53422,0,0,3.32,9.27,2.48,0.93,0.44,0.08
53475,0,0,4.70,7.98,2.74,0.04,0.67,0.77
53528,0,0,5.26,8.35,2.57,0.07,0.27,1.05
53581,0,0,5.72,7.90,3.06,0.12,-0.25,0.37
53634,0,0,5.58,8.03,2.84,0.08,-0.57,-0.30
53687,0,0,5.39,8.29,2.59,0.04,-0.55,-0.59
53740,0,0,5.03,8.35,2.54,0.03,-0.59,-0.83
53793,0,0,4.27,8.27,2.66,0.09,-0.82,-1.13
53846,0,0,4.41,8.92,1.87,0.20,-0.45,0.28
53899,0,0,4.08,8.98,1.84,0.22,-0.54,-0.18
53952,0,0,4.20,8.91,1.84,0.07,-0.15,0.11
54005,0,0,3.87,8.71,1.78,0.17,-0.41,0.15
54058,0,0,4.68,9.06,1.63,-0.01,-0.20,0.05
54111,0,0,4.07,8.89,1.79,-0.12,-0.21,-0.56
54164,0,0,3.76,9.11,1.87,-0.01,-0.23,-0.27
54217,0,0,4.04,9.06,1.74,0.18,-0.19,0.30
54270,0,0,4.16,8.83,1.70,0.09,-0.22,-0.12
54323,0,0,3.98,8.87,1.81,0.38,-0.01,1.17
54376,0,0,6.83,9.22,2.65,0.52,-0.68,0.84
54429,0,0,4.96,9.01,0.33,0.25,0.02,1.51
54482,0,0,6.67,8.13,1.92,0.02,0.14,0.16
54535,0,0,5.94,8.16,1.07,0.70,-0.59,0.11
54588,0,0,5.84,7.96,-0.01,0.44,-0.28,-0.05
54641,0,0,5.63,8.32,0.44,0.30,-0.33,0.43
54694,0,0,8.07,9.19,1.86,0.98,0.78,1.31
54747,0,0,7.17,8.20,0.62,0.66,0.34,2.10
54800,0,0,10.60,8.33,2.25,0.23,-2.14,2.08
54853,0,0,1.51,2.25,-3.80,-2.78,-0.45,-1.77
54906,0,0,5.97,9.91,-0.16,-0.58,0.09,-0.97
54959,0,0,6.32,7.76,0.73,-0.03,0.01,0.18
55012,0,0,6.52,7.60,0.56,-0.01,-0.10,0.10
55065,0,0,6.13,7.89,0.58,0.03,-0.16,-0.21
55118,0,0,6.11,7.92,0.58,0.03,-0.22,-0.37
55171,0,0,6.33,7.75,0.54,-0.04,-0.21,-0.04
55224,0,0,5.71,8.18,0.47,-0.11,-0.36,-0.23
55277,0,0,6.19,7.79,0.32,-0.28,-0.58,-0.39
55330,0,0,5.11,8.58,0.56,-0.07,-0.32,-0.34
55383,0,0,6.05,7.20,0.74,-0.04,-0.35,0.24
55436,0,0,4.50,8.87,0.68,-0.07,-0.20,-0.24
55489,0,0,5.49,8.34,0.37,0.14,0.00,-0.04
55542,0,0,5.09,8.55,0.32,0.09,-0.01,-0.11
55595,0,0,5.41,8.36,0.41,0.14,0.07,-0.01
55648,0,0,5.37,8.39,0.40,0.07,-0.10,-0.16
55701,0,0,4.89,8.66,0.19,-0.07,-0.40,-0.73
55754,0,0,5.47,8.43,1.03,0.22,0.52,0.98
55807,0,0,5.66,8.19,0.48,-0.04,-0.11,-0.21
55860,0,0,5.50,8.30,0.42,0.08,-0.12,0.20
55913,0,0,5.76,8.08,0.28,-0.27,-0.54,-0.55
55966,0,0,5.02,8.59,0.44,-0.10,-0.47,-0.38
56019,0,0,5.68,8.05,0.17,-0.17,-0.17,-0.22
56072,0,0,5.94,7.65,0.21,-0.62,-1.47,-4.89
56125,0,0,2.75,9.75,0.42,0.01,-0.71,0.18
56178,0,0,5.07,8.48,0.45,0.07,-0.03,0.55
56231,0,0,4.22,9.08,0.85,-0.23,-0.29,-1.73
56284,0,0,3.76,9.06,0.20,-0.38,-0.22,-0.84
56337,0,0,3.30,9.28,0.62,-0.03,-0.39,0.20
56390,0,0,3.07,9.67,1.19,0.12,-0.05,0.39
56443,0,0,5.05,8.95,0.40,0.24,-0.04,-0.29
56496,0,0,4.39,8.88,0.43,0.15,-0.06,0.64
56549,0,0,4.93,8.52,0.16,0.19,-0.14,0.39
56602,0,0,4.72,8.73,0.34,0.03,-0.13,0.01
56655,0,0,4.71,8.72,0.31,0.04,-0.12,0.05
56708,0,0,4.65,8.77,0.28,0.02,-0.12,-0.01
56761,0,0,4.79,8.68,0.30,-0.04,-0.14,-0.20
56814,0,0,4.64,8.74,0.21,-0.13,-0.22,-0.51
56867,0,0,4.23,8.95,0.33,-0.00,-0.19,-0.15
56920,0,0,3.91,9.44,0.77,0.26,-0.31,0.26
56973,0,0,4.50,8.76,0.25,-0.08,-0.12,-0.05
57026,0,0,4.75,8.57,0.17,-0.04,-0.16,-0.29
57079,0,0,4.05,9.01,0.36,-0.05,-0.27,-0.52
57132,0,0,4.00,9.01,0.36,-0.02,-0.13,-0.10
57185,0,0,4.27,9.00,0.41,0.01,0.13,0.45
57238,0,0,4.43,8.87,0.29,0.07,0.12,0.88
57291,0,0,4.68,8.65,0.34,0.19,0.12,0.75
57344,0,0,4.82,8.56,0.37,0.14,0.06,1.10
57397,0,0,3.15,9.48,0.20,-0.12,-0.09,-0.01
57450,0,0,3.96,9.07,0.28,0.02,-0.12,0.03
57503,0,0,4.47,8.79,0.29,0.07,-0.13,0.02
57556,0,0,4.44,8.85,0.35,0.02,-0.11,0.03
57609,0,0,3.55,9.96,1.16,0.29,-0.83,-1.25
57662,0,0,3.77,8.87,-0.27,-0.15,-0.64,-1.59
57715,0,0,1.21,10.18,-0.02,-0.60,-0.53,-1.50
57768,0,0,2.23,9.71,0.57,-0.51,0.10,-0.16
57821,0,0,3.40,8.66,0.11,0.28,-0.08,-0.97
57874,0,0,4.00,10.02,-1.53,-0.13,-2.15,-0.52
57927,0,0,-0.50,9.91,1.41,-0.11,-1.53,1.96
57980,0,0,1.43,9.77,0.28,-0.87,0.19,-0.03
58033,0,0,1.17,9.63,1.05,-0.73,-0.84,-2.29
58086,0,0,1.04,9.64,0.81,-0.07,-0.09,-0.15
58139,0,0,1.76,9.33,1.15,0.17,-0.49,-1.51
58192,0,0,0.14,9.76,0.73,0.02,0.18,-0.14
58245,0,0,0.08,9.76,1.47,-0.70,-0.14,0.16
58298,0,0,0.29,9.71,1.37,-0.87,-0.17,0.23
58351,0,0,0.51,9.81,1.35,0.28,-0.21,-0.23
58404,0,0,2.22,9.63,-0.63,0.80,-0.18,-0.17
58457,0,0,-2.97,10.11,4.85,0.38,-0.99,-0.11
58510,0,0,0.77,9.73,0.92,0.62,-0.25,-0.16
58563,0,0,0.61,9.49,-0.90,0.02,-0.08,-0.04
58616,0,0,0.09,9.63,-0.00,0.02,-0.56,0.03
58669,0,0,0.33,9.68,0.41,0.05,-0.15,-0.03
58722,0,0,0.14,9.83,1.67,0.18,-0.32,-0.03
58775,0,0,-0.02,9.73,0.79,-0.39,0.32,0.01
58828,0,0,0.24,9.77,1.52,0.11,-0.08,-0.04
58881,0,0,0.93,9.83,1.35,-0.16,-0.10,0.01
58934,0,0,-4.36,10.64,3.78,2.26,0.97,8.73
58987,0,0,2.56,7.87,-1.28,1.28,3.10,1.74
59040,0,0,7.31,6.92,0.73,0.79,2.47,-1.01
59093,0,0,6.06,8.73,1.34,0.28,0.05,-0.12
59146,0,0,2.50,9.26,-0.75,-0.36,-0.44,-0.15
59199,0,0,3.01,9.27,-1.01,0.07,-0.03,0.33
59252,0,0,3.60,9.19,0.45,0.07,0.02,-0.02
59305,0,0,3.37,9.31,0.45,0.11,-0.02,0.30
59358,0,0,4.50,8.90,1.73,-0.20,1.24,0.48
59411,0,0,4.28,8.79,1.46,-0.93,0.25,-1.46
59464,0,0,3.04,9.56,1.59,0.32,0.46,1.04
59517,0,0,3.37,9.50,2.11,-0.02,0.39,-0.43
59570,0,0,4.49,8.81,-3.92,1.10,0.05,1.06
59623,0,0,1.98,9.69,-2.61,1.34,0.52,2.26
59676,0,0,4.42,9.14,2.01,-0.88,0.35,-1.10
59729,0,0,3.83,9.13,1.39,0.08,-0.00,0.52
59782,0,0,3.45,9.29,0.82,0.61,-0.45,0.32
59835,0,0,3.90,9.16,1.22,0.36,-0.28,0.23
59888,0,0,3.93,9.11,0.79,0.09,-0.17,-0.28
59941,0,0,3.57,8.87,-1.24,0.67,-0.70,0.78
59994,0,0,5.00,9.13,2.46,0.08,-0.25,-0.16
60047,0,0,4.52,8.49,-1.01,-0.05,-0.15,-0.11
60100,0,0,4.89,8.63,0.68,-0.00,-0.24,-0.19
60153,0,0,3.85,9.18,0.61,-0.36,-0.62,-0.84
60206,0,0,2.93,9.50,0.20,0.10,-0.34,-1.16
60259,0,0,1.34,10.13,0.75,0.29,0.13,-1.09
60312,0,0,3.76,8.99,-0.57,0.53,1.34,-0.74
60365,0,0,4.45,8.87,0.29,0.16,0.25,-0.39
60418,0,0,2.04,9.62,0.07,0.03,-0.14,-0.09
60471,0,0,2.21,9.42,-0.54,0.08,-0.01,0.07
60524,0,0,2.29,9.47,-0.31,0.04,-0.02,0.07
60577,0,0,2.30,9.52,-0.50,0.03,-0.25,-0.43
60630,0,0,3.16,9.17,0.47,0.13,-0.04,0.35
60683,0,0,2.62,9.45,0.49,0.00,-0.08,0.18
60736,0,0,1.82,9.87,0.37,0.06,-0.03,0.21
60789,0,0,2.21,9.58,0.12,0.06,0.05,-0.06
60842,0,0,2.41,9.56,0.06,0.08,0.20,-0.16
60895,0,0,2.89,9.29,-0.02,0.13,0.17,-0.18
60948,0,0,2.43,9.50,0.29,0.09,0.18,-0.12
61001,0,0,3.16,9.14,-0.00,0.04,-0.09,-0.06
61054,0,0,2.53,9.49,0.00,0.08,-0.05,0.37
61107,0,0,2.15,9.67,0.00,0.02,-0.12,0.02
61160,0,0,2.24,9.60,0.06,0.00,-0.19,-0.23
61213,0,0,2.70,9.49,0.03,0.02,-0.12,-0.14
61266,0,0,2.73,9.41,-0.03,0.06,-0.08,0.19
61319,0,0,2.52,9.48,-0.01,0.01,-0.07,0.23
61372,0,0,2.39,9.48,-0.18,-0.04,-0.18,-0.04
61425,0,0,2.94,9.32,-0.05,0.11,-0.09,0.08
61478,0,0,3.09,9.28,0.02,0.09,-0.12,0.08
61531,0,0,2.99,9.33,-0.06,0.07,-0.11,0.12
61584,0,0,2.87,9.46,0.08,0.03,-0.13,-0.05
61637,0,0,2.88,9.41,0.05,0.01,-0.13,-0.04
61690,0,0,2.71,9.31,-0.26,0.03,-0.17,0.16
61743,0,0,3.51,9.09,-0.04,0.13,-0.06,0.36
61796,0,0,3.22,9.28,-0.11,0.14,-0.10,0.32
61849,0,0,3.24,9.22,-0.27,0.12,-0.13,0.35
61902,0,0,3.43,9.13,-0.26,0.01,-0.12,-0.00
61955,0,0,3.39,9.27,-0.04,-0.11,-0.08,-0.11
62008,0,0,3.40,9.24,-0.00,0.10,-0.13,0.15
62061,0,0,3.47,9.23,-0.06,0.03,-0.12,0.14
62114,0,0,3.58,9.19,-0.04,0.02,-0.11,-0.01
62167,0,0,3.67,9.12,-0.09,-0.00,-0.06,0.02
62220,0,0,3.45,9.19,-0.09,-0.05,-0.13,-0.23
62273,0,0,3.38,9.19,-0.09,-0.14,-0.23,-0.20
62326,0,0,3.62,9.13,0.05,0.07,-0.08,0.08
62379,0,0,3.55,9.14,-0.17,0.03,0.09,0.38
62432,0,0,3.22,9.34,0.17,0.09,-0.05,0.25
62485,0,0,3.77,9.06,-0.05,0.15,0.02,0.43
62538,0,0,3.83,9.07,-0.18,0.08,-0.02,0.29
62591,0,0,3.74,9.03,-0.46,0.15,0.11,0.29
62644,0,0,4.64,8.62,-0.13,-0.04,0.10,0.07
62697,0,0,4.17,9.01,0.26,-0.22,0.13,-0.18
62750,0,0,3.93,9.09,0.19,-0.07,-0.08,-0.49
62803,0,0,3.73,9.14,0.27,-0.22,-0.13,-0.53
62856,0,0,3.46,9.22,0.37,-0.21,-0.11,-0.46
62909,0,0,3.30,9.26,0.50,-0.14,-0.16,-0.39
62962,0,0,3.13,9.34,0.53,-0.05,-0.08,-0.17
63015,0,0,2.95,9.45,0.63,0.01,-0.14,-0.07
63068,0,0,2.49,6.27,-8.41,1.64,-0.08,1.69
63121,0,0,5.17,9.03,1.10,-0.05,0.10,-2.32
63174,0,0,4.10,8.74,-1.11,0.17,-0.25,0.29
63227,0,0,4.25,8.87,-0.10,0.19,-0.12,0.29
63280,0,0,5.16,8.74,1.37,0.13,-0.03,0.15
63333,0,0,4.47,8.52,-0.84,-0.14,0.49,5.39
63386,0,0,8.20,6.55,0.86,1.79,1.64,4.56
63439,0,0,12.74,0.51,1.65,-0.69,-2.03,-8.64
63492,0,0,4.61,9.45,2.24,-1.12,-2.20,0.08
63545,0,0,2.30,10.40,0.44,-0.41,-0.84,-0.40
63598,0,0,4.36,8.95,0.33,-1.66,-0.48,-0.76
63651,0,0,4.48,8.98,1.14,0.55,-0.13,1.92
63704,0,0,7.18,8.00,0.67,0.55,0.21,3.21
63757,0,0,3.41,9.69,1.45,-0.58,-0.36,-1.23
63810,0,0,5.71,7.99,0.16,-0.34,0.10,-0.34
63863,0,0,4.28,9.11,1.54,-0.08,-0.09,0.30
63916,0,0,4.55,8.86,1.08,0.09,-0.37,0.03
63969,0,0,4.94,8.56,0.61,0.18,-0.37,0.23
64022,0,0,4.85,8.68,0.66,0.29,-0.44,0.30
64075,0,0,4.90,8.75,0.73,0.45,-0.48,0.29
64128,0,0,5.82,7.94,-0.21,0.33,-0.07,-0.34
64181,0,0,4.63,8.65,-0.73,0.25,-0.23,-0.03
64234,0,0,4.85,8.52,-0.48,-0.09,-0.19,-0.47
64287,0,0,4.50,8.68,-0.15,-0.17,-0.21,-0.72
64340,0,0,3.90,9.14,-0.09,-0.14,-0.12,-0.31
64393,0,0,4.02,9.00,0.09,-0.04,0.06,-0.16
64446,0,0,4.02,9.05,0.13,-0.01,0.06,-0.22
64499,0,0,4.11,9.05,0.29,-0.06,-0.17,-0.45
64552,0,0,4.30,8.86,0.74,-0.05,-0.32,-1.46
64605,0,0,1.82,10.19,-0.34,0.23,-0.40,-1.73
64658,0,0,3.45,9.33,0.19,0.17,0.32,0.25
64711,0,0,1.81,10.20,0.02,-0.50,0.32,0.35
64764,0,0,2.84,9.14,0.20,-0.02,0.18,-0.29
64817,0,0,2.30,9.19,0.58,-0.37,0.13,0.14
64870,0,0,1.92,9.97,1.38,0.07,0.42,0.46
64923,0,0,3.21,9.38,1.10,0.54,0.63,0.69
64976,0,0,4.09,8.70,-0.40,0.31,0.29,0.56
65029,0,0,3.62,9.13,0.08,0.11,0.03,0.38
65082,0,0,4.04,8.94,-0.25,0.07,0.05,-0.05
65135,0,0,3.69,9.21,0.26,0.03,-0.15,0.11
65188,0,0,3.52,9.45,0.52,0.26,-0.26,0.33
65241,0,0,3.77,9.19,-0.04,0.28,0.29,1.38
65294,0,0,4.64,8.73,-0.23,0.51,-0.07,1.23
65347,0,0,5.52,8.15,-0.53,0.50,0.45,1.87
65400,0,0,6.44,7.57,-0.36,0.29,0.15,0.79
65453,0,0,6.41,7.59,-0.20,0.32,0.23,1.06
65506,0,0,6.25,7.62,-0.42,0.07,0.22,0.59
65559,0,0,7.26,6.96,0.01,0.10,0.26,0.53
65612,0,0,7.29,7.11,0.99,-0.36,0.06,0.21
65665,0,0,6.81,7.09,-0.95,-0.45,-0.02,-0.02
65718,0,0,7.33,7.03,1.20,-0.26,0.41,-0.00
65771,0,0,7.12,6.94,0.06,-0.22,0.25,0.05
65824,0,0,7.19,7.02,0.84,-0.22,-0.18,0.35
65877,0,0,7.34,6.77,0.33,-0.01,-0.18,0.05
65930,0,0,7.14,7.20,1.50,-1.06,-1.25,0.10
65983,0,0,8.09,5.99,1.46,1.13,-0.21,0.71
66036,0,0,7.52,6.56,-0.08,0.53,-0.46,0.41
66089,0,0,7.55,6.81,0.26,0.13,-0.51,-0.10
66142,0,0,7.71,6.49,-0.28,-0.02,-0.29,-0.54
66195,0,0,7.64,6.65,-1.58,-0.31,-0.28,0.42
66248,0,0,6.69,7.45,-0.33,-0.78,-0.06,-0.20
66301,0,0,8.49,6.41,2.39,-0.36,0.80,-0.36
66354,0,0,6.10,8.21,1.29,-0.51,0.60,-1.07
66407,0,0,5.77,8.18,2.78,-0.60,1.01,-1.61
66460,0,0,5.54,7.13,5.37,-0.31,2.18,-1.13
66513,0,0,2.53,3.55,4.30,-2.83,3.93,-0.78
66566,4095,0,7.47,8.71,8.32,-5.59,3.62,-1.42
66619,0,0,6.61,12.77,9.45,-2.48,0.14,-2.48
66672,0,0,4.34,10.96,5.85,1.58,-1.80,-1.31
66725,0,0,2.85,7.28,8.56,2.96,-1.99,0.05
66778,0,0,0.04,5.38,5.81,2.00,-1.12,-0.15
66831,0,0,1.01,5.66,5.32,-0.16,1.14,-0.08
66884,0,0,3.71,8.16,6.73,-0.90,0.99,-1.04
66937,0,0,3.02,9.94,6.12,0.03,-0.60,-1.39
66990,0,0,0.45,9.83,4.89,1.12,-1.05,-1.52
67043,0,0,1.81,4.84,6.82,0.51,0.31,-0.98
67096,0,0,1.26,5.83,5.37,-1.89,-0.72,-1.01
67149,0,0,-1.15,9.65,7.07,-2.00,-0.86,-0.41
67202,0,0,0.37,10.03,6.91,0.49,0.81,0.44
67255,0,0,1.36,8.50,7.00,2.31,0.59,0.13
67308,0,0,1.81,3.34,8.79,1.28,-0.82,0.26
67361,0,0,-1.46,7.05,6.18,-1.89,-0.29,-0.56
67414,0,0,0.60,10.57,7.75,-1.04,0.80,-0.27
67467,0,0,-0.34,10.37,7.33,0.75,0.04,0.22
67520,0,0,-0.33,7.55,7.04,1.09,1.19,0.01
67573,0,0,0.71,6.62,5.98,0.52,0.83,0.30
67626,0,0,0.60,6.67,4.89,0.09,0.81,0.32
67679,0,0,1.48,8.41,7.05,-0.60,0.35,-0.32
67732,0,0,-1.17,9.26,5.03,-0.58,-0.67,-0.25
67785,0,0,-0.51,7.80,6.51,0.02,0.77,0.04
67838,0,0,-0.68,6.84,6.30,-0.52,0.59,-0.05
67891,0,0,-1.01,8.90,6.97,-0.94,0.63,0.09
67944,0,0,0.22,8.94,5.71,0.23,0.72,0.57
67997,0,0,-0.61,7.41,5.97,0.41,-0.22,0.40
68050,0,0,-1.02,7.10,6.49,-0.21,-0.15,0.32
68103,0,0,0.00,8.24,6.69,-0.16,0.10,0.60
68156,0,0,1.05,6.75,7.37,-0.06,-0.62,0.99
68209,0,0,-1.39,7.35,7.26,-0.60,-0.67,0.23
68262,0,0,-1.20,8.19,7.51,-0.31,1.12,0.23
68315,0,0,1.09,7.25,7.30,-0.54,0.95,0.20
68368,0,0,1.03,7.45,7.21,-0.14,0.71,0.34
68421,0,0,0.50,5.61,7.34,0.00,0.40,0.88
68474,0,0,-0.99,8.37,5.94,-0.88,-0.55,0.31
68527,0,0,-2.50,7.77,7.29,0.49,0.50,0.65
68580,0,0,-0.34,6.11,7.16,0.55,1.29,0.81
68633,0,0,0.33,7.18,6.76,0.04,2.06,0.60
68686,0,0,1.77,7.19,7.79,-0.11,0.62,0.68
68739,0,0,-0.39,8.42,6.51,0.02,0.55,0.67
68792,0,0,-0.70,8.22,7.27,0.13,0.91,0.62
68845,0,0,0.14,7.02,6.83,-0.50,0.68,0.22
68898,0,0,-1.15,7.87,7.27,-0.71,0.88,-0.19
68951,0,0,-1.25,8.93,6.49,0.86,1.61,0.55
69004,0,0,0.29,6.21,6.44,0.68,-0.48,0.67
69057,0,0,-3.79,7.49,5.43,-0.29,0.36,0.30
69110,0,0,0.83,7.18,7.75,-0.14,1.18,0.18
69163,0,0,-0.99,7.30,6.24,0.21,-0.05,0.99
69216,0,0,-0.92,8.49,7.52,-0.40,-0.33,0.83
69269,0,0,-1.74,8.67,6.50,-0.36,-0.41,0.81
69322,0,0,-2.51,9.89,6.27,0.12,0.66,-0.22
69375,0,0,-0.53,6.89,6.92,0.43,1.60,0.38
69428,0,0,0.25,8.83,5.49,-0.38,0.56,-0.15
69481,0,0,-0.32,8.24,5.57,0.28,0.81,0.21
69534,0,0,0.68,7.46,5.99,-0.04,-1.00,0.66
69587,0,0,-1.57,7.82,7.85,-0.54,-0.27,0.27
69640,0,0,-0.54,9.01,6.23,-0.27,-0.18,0.41
69693,0,0,0.17,8.35,6.21,0.63,0.43,0.96
69746,0,0,1.71,6.63,6.52,-0.42,0.11,-0.17
69799,0,0,0.55,6.17,6.40,-1.61,-1.04,0.69
69852,0,0,1.46,9.35,7.24,-2.14,-2.37,-0.00
69905,0,0,-1.02,7.88,7.69,-0.69,-1.42,-0.05
69958,0,0,-1.07,6.92,11.02,-0.20,-0.36,-0.96
70011,0,0,-0.35,7.21,8.76,0.17,0.36,0.05
70064,0,0,2.29,5.07,9.22,0.32,0.79,0.98
70117,0,0,2.73,6.45,6.88,-0.29,-0.11,0.20
70170,0,0,1.79,7.42,8.08,-0.02,-0.88,0.68
70223,0,0,-1.79,5.59,8.97,-0.14,0.90,0.76
70276,0,0,3.96,6.89,8.30,-0.12,2.49,0.60
70329,0,0,4.24,6.12,7.62,-0.85,-0.26,0.33
70382,0,0,1.50,6.27,7.92,-1.05,-1.35,-0.20
70435,0,0,1.87,7.48,9.02,-0.57,-1.04,-0.68
70488,0,0,2.85,4.60,8.99,-0.44,-1.42,-0.96
70541,0,0,2.46,3.77,9.16,-0.92,-1.05,-0.97
70594,0,0,2.73,6.72,9.38,-0.56,-1.83,-1.97
70647,0,0,0.81,4.55,10.89,1.03,-1.51,-0.52
70700,0,0,2.15,4.72,9.39,-0.37,0.96,-1.74
70753,0,0,3.82,6.30,8.23,0.27,-0.23,-1.01
70806,0,0,2.55,4.36,8.22,0.14,-0.32,-0.90
70859,0,0,1.74,5.53,9.08,0.16,-1.18,-0.27
70912,0,0,2.51,7.78,7.37,1.60,-0.06,0.22
70965,0,0,1.88,6.16,8.66,1.92,-1.63,1.23
71018,0,0,-0.67,7.60,8.14,1.27,1.71,0.79
71071,0,0,1.37,5.00,9.02,0.48,2.08,0.92
71124,0,0,3.38,3.83,7.84,-0.43,3.08,1.30
71177,0,0,6.84,3.92,9.28,-2.78,2.53,0.17
71230,0,0,6.43,10.94,7.47,-2.13,-1.38,-0.33
71283,0,0,0.50,4.93,9.84,-0.23,-2.03,0.78
71336,0,0,-0.16,5.77,10.27,-0.79,0.60,-0.53
71389,0,0,3.68,4.80,9.96,0.97,0.92,1.44
71442,0,0,3.31,3.99,8.16,-0.03,0.31,0.45
71495,0,0,5.13,5.46,8.50,0.02,-0.67,0.02
71548,0,0,2.48,3.26,9.42,-0.42,-1.16,0.10
71601,0,0,2.35,4.10,8.86,-1.15,-0.23,-0.51
71654,0,0,3.94,4.37,8.96,-0.31,-0.66,-0.37
71707,0,0,2.88,3.11,10.19,-0.13,-0.86,0.02
71760,0,0,2.42,3.40,9.71,-0.58,0.44,-0.61
71813,0,0,4.53,2.80,9.87,-0.70,0.31,-0.31
71866,0,0,3.96,4.28,8.11,-1.30,-0.34,-0.64
71919,0,0,1.84,4.87,11.03,0.47,-1.07,0.22
71972,0,0,4.23,2.75,9.11,0.87,0.18,0.37
72025,0,0,5.03,3.20,9.80,0.11,-1.11,-0.15
72078,0,0,1.05,3.53,9.86,0.07,-0.24,-0.22
72131,0,0,5.39,3.44,9.03,0.36,0.50,-0.00
72184,0,0,4.17,3.90,9.32,0.11,-0.82,-0.10
72237,0,0,2.60,3.90,9.24,0.16,-0.21,-0.03
72290,0,0,4.95,3.65,9.81,0.21,0.00,0.08
72343,0,0,3.29,3.84,9.06,0.15,-0.09,0.20
72396,0,0,4.75,3.63,9.08,-0.19,0.01,-0.06
72449,0,0,4.02,4.02,9.56,0.14,-0.56,0.06
72502,0,0,3.13,4.82,10.09,0.50,-0.16,0.24
72555,0,0,3.72,4.19,10.34,0.88,0.52,0.48
72608,0,0,5.37,4.16,9.16,0.12,0.24,-0.07
72661,0,0,5.14,5.83,9.82,-0.43,0.37,-1.74
72714,0,0,6.05,5.23,6.95,-0.81,-0.58,-2.28
72767,0,0,-0.40,-0.23,8.38,-1.50,0.71,-5.85
72820,0,0,-0.14,5.33,11.68,-1.11,2.49,-0.68
72873,0,0,-1.98,4.76,8.13,-0.37,2.57,-0.23
72926,0,0,-6.34,4.29,17.09,0.78,2.01,1.45
72979,0,0,-0.17,-3.95,5.37,4.16,-0.19,2.44
73032,0,0,9.87,2.42,10.37,0.46,1.04,-1.48
73085,0,0,-2.81,2.32,9.71,-1.12,1.28,-1.27
73138,0,0,-3.66,5.01,8.50,-1.91,1.47,-0.34
73191,0,0,-0.93,7.17,10.59,0.17,-1.55,0.61
73244,0,0,-1.64,6.45,6.67,1.77,-5.60,0.13
73297,0,0,-1.98,7.72,8.50,0.47,-3.03,0.16
73350,0,0,1.46,5.67,9.50,1.19,-0.58,-0.36
73403,0,0,-0.23,4.75,9.32,0.73,-0.46,-0.23
73456,0,0,-0.02,6.20,7.87,-0.13,-0.21,-0.07
73509,0,0,1.73,6.63,5.66,-0.31,0.20,-0.47
73562,0,0,0.74,10.55,6.05,-0.76,-0.24,-1.09
73615,0,0,-0.35,5.19,9.97,0.93,0.15,-0.40
73668,0,0,0.79,5.94,8.93,0.81,0.62,-0.14
73721,0,0,1.13,6.21,7.58,-0.32,-0.21,-0.35
73774,0,0,0.64,7.49,7.17,-0.43,-1.14,-0.98
73827,0,0,-1.89,7.48,6.45,1.01,-1.10,-0.69
73880,0,0,-0.36,6.30,8.55,0.31,-0.14,-1.11
73933,0,0,-1.83,4.94,7.77,-0.00,-1.02,-1.24
73986,0,0,-3.83,6.13,8.38,-0.73,-1.67,-1.50
74039,0,0,-3.11,6.14,7.94,0.67,-0.07,-0.65
74092,0,0,-2.43,5.12,8.56,0.12,0.87,-0.27
74145,0,0,-2.46,4.34,8.22,-0.14,1.13,0.57
74198,0,0,-2.96,5.12,6.78,-0.45,0.46,1.14
74251,0,0,-1.74,5.01,7.25,-0.77,1.06,1.29
74304,0,0,0.65,5.05,6.76,-1.05,1.16,1.32
74357,0,0,-2.30,6.94,5.98,-1.55,-0.55,1.38
74410,0,0,-0.67,7.13,6.93,-0.84,0.53,1.19
74463,0,0,-0.57,4.14,9.56,0.27,2.59,1.78
74516,0,0,4.33,3.90,12.57,0.91,0.16,0.34
74569,0,0,-2.86,7.38,11.02,-3.64,-3.46,-0.57
74622,0,0,-2.58,9.06,8.03,-2.17,-2.31,-0.38
74675,0,0,1.29,7.73,7.67,0.56,-0.63,-1.00
74728,0,0,1.00,2.41,10.44,1.01,-0.56,-0.98
74781,0,0,-0.28,4.20,10.18,-0.10,-0.09,-1.04
74834,0,0,0.34,5.40,9.11,0.09,1.38,0.04
74887,0,0,2.76,5.63,9.31,1.03,1.19,0.24
74940,0,0,-0.98,-0.47,30.26,2.38,-3.26,-1.13
74993,0,0,0.62,5.98,8.75,2.31,-0.50,2.18
75046,0,0,3.26,6.76,9.07,-0.02,0.51,0.47
75099,0,0,0.41,7.00,7.88,0.08,1.44,0.34
75152,0,0,0.69,6.58,7.94,1.11,1.12,0.51
75205,0,0,0.73,6.39,8.05,-0.22,0.02,0.07
75258,0,0,1.34,6.79,8.47,-1.21,-0.62,-0.89
75311,0,0,1.98,5.32,9.64,-0.75,-0.64,-2.38
75364,0,0,0.77,9.27,8.88,0.38,-1.36,-1.09
75417,0,0,0.21,4.00,9.41,0.79,-1.00,-0.47
75470,0,0,-0.50,3.45,9.97,-0.25,-0.79,-0.03
75523,0,0,2.12,5.78,8.55,-1.18,-0.56,-0.26
75576,0,0,-1.19,5.70,6.94,-0.31,0.19,0.38
75629,0,0,2.71,6.70,7.90,0.14,0.01,-0.11
75682,0,0,0.89,5.58,8.39,0.52,-0.45,-0.26
75735,0,0,2.40,6.91,9.36,3.89,-0.71,0.45
75788,0,0,0.56,7.43,7.68,2.63,-0.68,1.59
75841,0,0,3.23,7.58,5.58,1.61,0.24,0.63
75894,0,0,2.45,8.41,6.06,-0.87,0.23,-0.66
75947,0,0,1.63,7.62,7.22,-1.54,-0.12,-0.53
76000,0,0,2.19,7.34,7.12,-0.01,-0.65,0.10
76053,0,0,2.09,7.67,6.94,0.70,-0.55,0.27
76106,0,0,2.54,7.88,7.39,-0.03,-0.39,0.01
76159,0,0,1.93,7.76,7.24,0.31,-0.19,0.13
76212,0,0,3.36,7.36,6.50,-0.23,-0.47,0.05
76265,0,0,2.73,7.29,6.43,-0.39,-0.70,-0.04
76318,0,0,2.87,7.48,6.78,-0.02,-0.41,-0.07
76371,0,0,2.64,7.58,7.03,0.26,0.11,-0.07
76424,0,0,2.76,7.58,6.68,0.33,0.08,0.13
76477,0,0,3.16,7.52,6.42,0.32,0.09,0.16
76530,0,0,3.12,7.54,6.43,-0.02,-0.35,0.14
76583,0,0,3.39,7.48,6.47,0.02,-0.57,0.11
76636,0,0,3.22,7.45,6.41,0.03,-0.71,0.01
76689,0,0,3.64,7.53,6.31,-0.00,-1.08,0.17
76742,0,0,4.10,7.56,6.11,0.01,-0.77,0.20
76795,0,0,4.15,7.36,6.16,-0.45,-0.44,-0.01
76848,0,0,4.17,7.19,6.37,-0.50,-0.56,-0.10
76901,0,0,4.37,7.23,6.06,-0.19,-0.60,-0.11
76954,0,0,4.26,7.20,6.24,0.08,-0.36,-0.05
77007,0,0,4.31,7.26,6.10,0.19,-0.20,-0.04
77060,0,0,4.25,7.38,6.31,0.15,-0.10,0.04
77113,0,0,4.34,7.42,6.10,-0.01,-0.14,0.03
77166,0,0,4.29,7.21,6.06,-0.20,0.37,-0.13
77219,0,0,3.79,7.17,6.60,-0.62,0.12,-0.66
77272,0,0,3.82,7.26,6.46,-0.21,0.27,-0.82
77325,0,0,3.31,7.40,6.88,0.20,0.06,-0.27
77378,0,0,3.14,7.30,6.85,0.05,-0.03,-0.20
77431,0,0,3.08,7.34,7.01,-0.06,0.10,-0.05
77484,0,0,2.94,7.27,6.90,-0.17,0.07,-0.14
77537,0,0,2.89,7.22,6.95,0.07,0.12,-0.02
77590,0,0,2.77,7.32,7.02,0.07,0.12,-0.02
77643,0,0,2.75,7.24,6.98,0.08,-0.13,0.02
77696,0,0,2.86,7.27,6.93,0.11,-0.33,0.03
77749,0,0,2.79,7.40,6.92,0.21,-0.35,0.02
77802,0,0,2.82,7.43,6.72,0.10,-0.26,-0.02
77855,0,0,2.88,7.48,6.85,0.07,-0.29,-0.03
77908,0,0,3.00,7.49,6.76,0.10,-0.35,-0.00
77961,0,0,3.05,7.46,6.58,0.00,-0.10,-0.02
78014,0,0,2.95,7.44,6.63,0.03,0.05,-0.02
78067,0,0,2.86,7.49,6.69,0.09,0.28,-0.01
78120,0,0,2.75,7.53,6.73,0.11,0.16,0.00
78173,0,0,2.70,7.53,6.75,0.14,0.24,-0.00
78226,0,0,2.65,7.58,6.73,0.06,0.04,0.01
78279,0,0,2.68,7.55,6.73,0.07,-0.01,0.00
78332,0,0,2.68,7.57,6.74,0.04,-0.13,0.05
78385,0,0,2.71,7.57,6.72,-0.07,-0.29,0.04
78438,0,0,2.63,7.53,6.61,-0.14,-0.33,0.02
78491,0,0,2.65,7.54,6.78,0.07,-0.01,-0.02
78544,0,0,2.71,7.58,6.72,0.13,0.22,-0.01
78597,0,0,2.52,7.50,6.78,0.05,0.30,-0.01
78650,0,0,2.42,7.54,6.84,0.01,0.13,-0.01
78703,0,0,2.53,7.54,6.83,0.02,-0.03,-0.02
78756,0,0,2.45,7.52,6.85,0.03,-0.12,-0.03
78809,0,0,2.35,7.54,6.71,0.05,0.13,-0.03
78862,0,0,2.08,7.65,6.84,0.17,0.50,-0.06
78915,0,0,1.96,7.67,6.80,0.09,0.38,-0.02
78968,0,0,1.80,7.68,6.90,0.16,0.39,0.01
79021,0,0,1.83,7.68,6.78,0.04,0.16,-0.02
79074,0,0,1.68,7.70,6.81,0.03,-0.08,-0.04
79127,0,0,1.66,7.70,6.81,0.01,-0.17,-0.05
79180,0,0,1.65,7.74,6.81,0.03,-0.16,-0.04
79233,0,0,1.65,7.75,6.75,0.03,-0.31,-0.02
79286,0,0,1.75,7.74,6.86,-0.05,-0.27,-0.04
79339,0,0,1.64,7.50,7.08,-0.40,-0.11,-0.38
79392,0,0,1.64,7.53,6.95,-0.08,-0.63,-0.03
79445,0,0,1.63,7.57,7.06,0.06,-0.31,-0.02
79498,0,0,1.78,7.55,6.85,0.18,-0.19,0.02
79551,0,0,1.69,7.71,7.00,0.18,-0.27,0.08
79604,0,0,1.90,7.70,6.55,-0.01,0.05,-0.00
79657,0,0,1.54,7.69,7.10,-0.01,0.06,-0.01
79710,0,0,1.79,7.69,6.90,0.17,-0.43,0.10
79763,0,0,1.80,7.64,6.90,0.10,-0.05,0.09
79816,0,0,2.25,7.76,6.92,-0.53,-0.56,0.22
79869,0,0,2.23,7.43,7.52,-1.08,0.29,-0.11
79922,0,0,2.28,7.53,8.65,-3.50,0.22,-0.74
79975,0,0,3.44,6.13,7.84,1.92,-0.39,-0.65
80028,0,0,1.22,6.48,9.18,0.41,-1.32,-1.47
80081,0,0,0.82,7.57,8.30,0.13,-0.54,-0.63
80134,0,0,2.20,8.51,7.83,0.62,1.05,0.18
80187,0,0,2.80,6.31,7.26,0.66,0.05,-0.21
80240,0,0,0.10,7.40,7.11,0.12,-0.47,-0.17
80293,0,0,0.43,6.93,6.52,0.14,0.30,-0.25
80346,0,0,0.40,6.23,5.47,0.07,-0.25,-0.48
80399,0,0,-0.35,7.57,4.75,0.27,-0.43,-0.77
80452,0,0,-0.09,7.20,5.48,0.37,-1.21,-1.28
80505,0,0,-1.07,7.58,6.05,1.06,-0.77,-1.08
80558,0,0,-0.39,7.92,8.22,0.17,0.34,-0.63
80611,0,0,0.19,7.97,8.30,0.25,0.08,-0.39
80664,0,0,-2.52,7.59,7.69,0.20,-0.18,0.04
80717,0,0,-1.07,6.90,6.32,0.31,0.31,-0.10
80770,0,0,-1.40,8.22,4.18,0.43,0.15,-0.18
80823,0,0,-1.04,9.61,2.25,1.18,-0.23,-0.80
80876,0,0,-9.23,2.67,10.28,-3.14,1.14,-5.97
80929,0,0,-3.90,7.28,5.33,-0.25,3.80,-1.65
80982,0,0,-6.30,6.36,5.44,-0.59,4.58,-1.73
81035,0,0,-7.37,6.34,1.96,-0.58,4.71,0.07
81088,0,0,-6.51,6.80,4.24,-0.60,-0.08,-1.30
81141,0,0,-4.77,8.13,3.21,1.08,-2.39,0.60
81194,0,0,-2.17,8.43,2.73,2.94,-5.88,1.53
81247,0,0,-7.09,8.22,3.46,3.25,-3.65,0.69
81300,0,0,-4.64,6.14,4.89,2.27,-2.76,0.15
81353,0,0,-11.03,3.50,6.06,1.53,-2.63,-1.08
81406,0,0,-5.28,8.53,3.03,0.45,1.95,-0.45
81459,0,0,-3.33,6.52,0.82,-0.04,0.76,0.03
81512,0,0,-4.18,8.13,0.85,0.33,-0.49,0.20
81565,0,0,-4.78,8.56,1.71,0.35,-0.17,-0.22
81618,0,0,-5.89,7.43,2.06,-0.43,-0.44,0.26
81671,0,0,-3.55,9.88,2.11,-0.99,-0.59,0.24
81724,0,0,-5.01,7.81,3.69,-0.90,0.36,-0.34
81777,0,0,-4.25,9.01,2.10,-0.19,-0.06,-0.04
81830,0,0,-4.90,8.10,2.47,-0.57,-0.36,-0.24
81883,0,0,-4.84,7.92,3.32,-0.03,-0.30,-0.31
81936,0,0,-4.58,8.31,3.63,-0.18,-0.42,-0.48
81989,0,0,-5.44,7.67,3.21,-0.33,-0.42,-0.50
82042,0,0,-5.43,7.15,3.49,-0.83,-0.70,-0.64
82095,0,0,-6.13,9.15,4.16,-1.29,-0.12,-0.91
82148,0,0,-5.96,6.98,4.76,-0.54,-0.46,-0.35
82201,0,0,-6.10,6.05,4.67,-0.58,-0.54,-0.32
82254,0,0,-5.32,6.17,6.14,-0.71,0.03,-0.08
82307,0,0,-4.88,7.27,4.79,-0.09,-0.50,-0.21
82360,0,0,-5.84,6.47,6.00,-0.66,-0.83,-0.69
82413,0,0,-5.68,5.01,6.43,-0.12,-0.66,-0.30
82466,0,0,-5.52,5.77,5.97,-0.07,-0.51,-0.38
82519,0,0,-5.56,6.09,5.88,-0.20,-0.24,-0.03
82572,0,0,-6.29,4.50,5.72,-0.62,0.39,0.63
82625,0,0,-4.73,6.79,7.48,-1.37,0.87,-1.21
82678,0,0,-2.41,2.03,5.90,0.61,-1.02,-0.19
82731,0,0,-8.93,5.15,7.12,-1.45,-1.32,-1.12
82784,0,0,-5.66,2.85,7.94,-0.15,-0.42,-0.13
82837,0,0,-5.05,3.71,7.92,-1.92,1.32,-0.36
82890,0,0,-4.07,5.29,8.33,0.34,-2.02,-0.94
82943,0,0,-7.94,1.30,6.91,1.85,-0.05,0.50
82996,0,0,-5.53,4.58,9.66,-0.45,-0.30,-0.55
83049,0,0,-5.89,3.25,7.86,0.56,-0.36,-0.12
83102,0,0,-5.08,4.09,8.44,-0.63,0.71,0.02
83155,0,0,-6.85,2.65,7.03,0.75,-0.43,0.71
83208,0,0,-3.74,4.70,8.63,0.78,-0.64,-0.34
83261,0,0,-6.01,3.53,7.43,0.16,-0.60,-0.27
83314,0,0,-6.08,3.83,7.49,0.13,-0.06,0.92
83367,0,0,-5.79,4.41,7.28,0.78,0.12,1.22
83420,0,0,-5.77,4.71,7.39,0.61,0.86,0.50
83473,0,0,-5.66,5.04,7.34,-0.38,0.84,-0.81
83526,0,0,-5.86,5.00,6.83,-0.62,0.60,-0.70
83579,0,0,-6.99,3.38,6.19,-1.24,0.21,-1.60
83632,0,0,-7.39,2.50,5.73,-0.85,0.30,-1.39
83685,0,0,-6.87,2.75,5.64,-0.35,0.10,-0.58
83738,0,0,-7.76,2.28,6.08,0.13,0.13,0.08
83791,0,0,-7.56,2.55,6.34,0.11,0.34,0.23
83844,0,0,-7.78,2.00,6.25,-0.10,0.09,-0.21
83897,0,0,-7.95,1.64,4.46,-0.41,0.47,-0.38
83950,0,0,-8.03,2.06,5.48,-0.53,1.04,0.09
84003,0,0,-8.51,1.84,5.29,-0.37,0.63,-0.28
84056,0,0,-8.44,1.14,4.43,-0.31,0.92,-0.96
84109,0,0,-8.51,0.90,4.05,-0.49,1.04,-0.49
84162,0,0,-10.01,0.77,3.68,-0.35,0.54,0.27
84215,0,0,-8.94,0.16,2.04,-1.10,1.01,-0.89
84268,0,0,-9.42,0.97,2.53,-0.49,1.67,1.18
84321,0,0,-8.92,0.30,1.56,-0.58,1.09,0.01
84374,0,0,-9.21,0.91,1.05,-0.60,0.86,-0.39
84427,0,0,-8.87,0.52,0.34,-0.76,0.82,-0.60
84480,0,0,-9.83,1.41,1.31,-0.83,1.22,-1.80
84533,0,0,-9.35,-0.86,-0.60,-1.32,0.27,-4.35
84586,0,0,-9.18,-1.03,-0.16,-0.32,-0.77,-0.89
84639,0,0,-9.15,-2.08,-0.18,-0.21,-0.59,-1.34
84692,0,0,-8.63,-3.33,-0.47,0.23,-0.15,-1.38
84745,0,0,-7.87,-3.97,-0.23,0.52,0.29,0.25
84798,0,0,-8.51,-4.14,-0.13,0.51,-0.06,0.74
84851,0,0,-9.76,-3.03,-0.57,-0.16,-0.18,-2.37
84904,0,0,-7.69,-5.81,-0.69,-0.64,-0.41,-1.19
84957,0,0,-6.91,-6.45,-0.53,-0.75,0.06,-0.99
85010,0,0,-7.73,-5.47,-0.80,-0.55,-0.11,-0.68
85063,0,0,-7.40,-6.26,-1.40,-1.15,0.01,-0.03
85116,0,0,-8.00,-5.35,-1.47,-1.05,0.99,-1.31
85169,0,0,-5.70,-6.20,-1.69,-0.46,0.91,0.13
85222,0,0,-6.60,-4.30,-1.83,-0.26,0.62,0.43
85275,0,0,-5.81,-6.60,-2.81,0.39,0.51,-1.78
85328,0,0,-6.30,-6.24,-2.99,0.21,0.16,0.57
85381,0,0,-7.13,-5.04,-3.78,-0.71,-0.51,-0.20
85434,0,0,-6.02,-7.76,-3.51,-0.44,-0.76,-3.20
85487,0,0,-4.50,-8.08,-2.87,-0.38,0.10,1.17
85540,0,0,-4.94,-8.03,-2.69,0.20,-0.14,-0.75
85593,0,0,-5.63,-7.35,-2.41,-0.14,-0.09,1.90
85646,0,0,-4.51,-7.03,-3.43,0.28,0.00,-0.76
85699,0,0,-5.14,-6.80,-3.60,-0.16,-0.03,-0.23
85752,0,0,-5.22,-8.36,-2.73,0.05,-0.27,0.45
85805,0,0,-5.75,-5.82,-2.51,0.31,-0.71,-0.50
85858,0,0,-2.18,-5.60,-4.24,0.94,-1.39,0.91
85911,0,0,-9.86,-10.98,-0.53,0.25,-0.22,-0.68
85964,0,0,-5.83,-7.97,-1.59,-0.87,-0.13,-1.18
86017,0,0,-3.51,-5.78,-2.65,0.09,-0.80,0.34
86070,0,0,-4.40,-7.41,-2.41,0.97,-1.25,-0.01
86123,0,0,-6.46,-8.67,-1.19,-0.17,-0.59,-0.36
86176,0,0,-5.76,-7.93,-1.86,-0.68,-0.13,-0.58
86229,0,0,-5.53,-7.41,-1.94,-1.01,0.60,-0.55
86282,0,0,-2.68,-8.53,-1.13,-0.91,0.02,-1.70
86335,0,0,-5.94,-8.54,-2.37,-0.52,-1.03,-0.12
86388,0,0,-5.01,-7.85,-2.84,-0.75,-0.26,-0.73
86441,0,0,-5.24,-6.64,-3.05,0.08,0.22,-0.01
86494,0,0,-4.42,-6.44,-2.69,0.83,0.72,0.66
86547,0,0,-5.04,-8.23,-2.20,1.33,0.65,0.34
86600,0,0,-4.30,-7.55,-2.13,1.57,0.65,1.09
86653,0,0,-4.09,-8.86,-1.16,1.34,0.05,0.88
86706,0,0,-5.57,-8.03,-0.98,0.20,-0.30,0.09
86759,0,0,-6.10,-7.76,-1.45,0.50,-0.51,-0.36
86812,0,0,-4.99,-8.31,-1.78,0.33,0.29,0.24
86865,0,0,-4.59,-7.40,-1.76,0.41,0.41,0.69
86918,0,0,-5.31,-7.83,-0.84,0.55,0.15,0.39
86971,0,0,-5.32,-7.44,-1.16,0.49,0.01,0.82
87024,0,0,-6.17,-7.00,-0.71,0.65,-0.25,0.80
87077,0,0,-6.64,-7.12,-0.89,0.62,-0.01,0.95
87130,0,0,-6.41,-6.79,-0.30,0.21,0.32,0.27
87183,0,0,-6.51,-6.43,0.18,0.27,0.06,1.24
87236,0,0,-13.63,-7.13,1.95,0.89,-1.84,4.75
87289,0,0,-3.86,-8.52,1.69,0.79,-1.37,-2.00
87342,0,0,-7.07,-6.23,1.93,0.54,-0.75,5.38
87395,0,0,-10.34,-4.24,3.79,1.24,-3.53,-8.73
87448,0,0,-0.02,-2.30,2.61,0.78,-5.04,7.61
87501,0,0,2.59,4.06,4.53,1.38,-6.49,4.35
87554,0,0,-22.23,-0.04,12.39,0.06,-2.23,-0.46
87607,0,0,-1.90,0.42,6.64,1.20,0.78,1.25
87660,0,0,-8.64,-0.01,8.03,0.10,-0.49,0.31
87713,0,0,-7.03,-0.14,7.69,0.04,-0.23,0.07
87766,0,0,-6.65,-0.08,7.75,0.02,-0.18,-0.01
87819,0,0,-6.57,-0.12,7.78,0.03,-0.18,0.03
87872,0,0,-6.62,-0.06,7.76,0.03,-0.18,0.02
87925,0,0,-6.58,-0.04,7.78,0.03,-0.17,0.01
87978,0,0,-6.67,0.01,7.83,0.02,-0.18,0.02
88031,0,0,-6.49,0.01,7.82,0.05,-0.17,-0.02
88084,0,0,-6.54,-0.02,7.90,0.02,-0.16,0.01
88137,0,0,-6.51,0.03,7.89,0.02,-0.15,0.01
88190,0,0,-6.54,0.00,7.91,0.02,-0.16,0.02
88243,0,0,-6.50,-0.05,7.86,0.03,-0.15,-0.01
88296,0,0,-6.47,0.06,7.75,0.01,-0.13,0.01
88349,0,0,-6.88,0.17,6.84,0.00,-0.43,0.10
88402,0,0,-10.29,1.89,10.83,-0.04,-0.66,-0.41
88455,0,0,-6.73,0.17,7.20,-0.12,0.55,-0.48
88508,0,0,-4.66,-0.37,7.36,-0.01,-0.60,1.08
88561,0,0,-8.12,0.84,7.44,0.05,-0.32,0.20
88614,0,0,-6.03,0.42,8.00,0.01,-0.43,0.26
88667,0,0,-5.70,0.06,8.12,0.61,-1.17,0.40
88720,0,0,-8.34,0.63,7.99,0.19,0.92,-1.93
88773,0,0,-4.60,0.18,9.14,0.32,0.27,0.20
88826,0,0,-6.51,0.08,11.23,1.08,0.28,0.29
88879,0,0,-7.11,-1.60,7.47,-0.78,0.67,-2.58
88932,0,0,-7.13,0.07,6.60,-0.98,0.58,0.67
88985,0,0,-6.78,-2.55,6.52,-1.24,0.76,0.81
89038,0,0,-6.55,-2.70,7.36,-4.06,-0.66,0.74
89091,0,0,-9.71,-0.70,4.35,-2.87,0.78,-1.69
89144,0,0,-7.27,-2.63,6.72,-1.29,0.03,0.95
89197,0,0,-8.55,-1.78,5.49,-1.18,-0.31,0.84
89250,0,0,-8.93,-2.78,6.04,1.81,3.18,1.24
89303,0,0,-7.33,-2.27,3.91,0.75,3.79,2.51
89356,0,0,-8.61,-0.17,1.17,-0.07,1.11,1.47
89409,0,0,-7.26,1.09,1.02,-0.48,0.15,1.53
89462,0,0,-5.38,3.64,1.36,-0.57,-1.11,0.53
89515,0,0,-9.30,3.35,1.70,1.54,-1.46,0.76
89568,0,0,-9.75,2.60,2.62,2.77,-1.36,3.72
89621,0,0,-7.02,5.21,1.12,2.08,-0.65,0.33
89674,0,0,-8.03,5.97,1.57,0.17,-0.84,-0.43
89727,0,0,-10.81,2.22,3.33,1.21,-0.48,0.03
89780,0,0,-9.40,6.16,3.13,0.22,-0.46,-0.05
89833,0,0,-9.18,4.55,2.15,1.30,0.21,-0.15
89886,0,0,-7.74,1.70,1.92,1.27,-0.76,1.09
89939,0,0,-6.21,3.07,1.48,-0.57,-0.30,-0.20
89992,0,0,-7.28,4.80,1.98,-1.71,-0.76,-0.81
90045,0,0,-7.44,4.47,3.70,-2.10,-0.28,-0.22
90098,0,0,-8.70,3.50,4.95,-3.00,-1.06,-1.30
90151,0,0,-8.84,3.86,6.17,-1.89,-1.67,-2.55
90204,0,0,-8.92,3.95,6.96,0.61,-0.04,-1.15
90257,0,0,-8.88,2.59,5.58,0.88,0.10,-1.93
90310,0,0,-8.66,3.04,4.64,1.35,0.32,-0.91
90363,0,0,-8.56,3.66,1.44,1.81,0.41,0.31
90416,0,0,-8.51,1.94,4.53,4.17,0.21,1.23
90469,0,0,-8.84,3.85,4.22,1.41,1.34,-1.35
ets Jul 29 2019 12:21:46

rst:0x1 (POWERON_RESET),boot:0x13 (SPI_FAST_FLASH_BOOT)
configsip: 0, SPIWP:0xee
clk_drv:0x00,q_drv:0x00,d_drv:0x00,cs0_drv:0x00,hd_drv:0x00,wp_drv:0x00
mode:DIO, clock div:1
load:0x3fff0030,len:4640
load:0x40078000,len:15592
load:0x40080400,len:3164
entry 0x4008059c
timestamp,heel_fsr,toe_fsr,accel_x,accel_y,accel_z,gyro_x,gyro_y,gyro_z
1323,0,0,-8.83,2.77,1.34,0.13,0.02,-0.08
1376,0,0,-9.24,3.12,1.25,0.13,0.11,-0.08
1429,0,0,-8.85,2.92,1.19,0.21,0.12,-0.07
1482,0,0,-8.69,2.69,1.18,0.27,-0.19,0.05
1535,0,0,-8.65,2.61,1.77,0.32,-0.50,0.02
1588,0,0,-9.33,3.26,1.19,0.40,-0.00,-0.06
1641,0,0,-8.67,2.71,0.93,0.59,0.10,0.01
1694,0,0,-9.17,2.70,0.49,0.35,-0.05,0.16
1747,0,0,-9.14,2.48,0.73,0.39,0.15,-0.08
1800,0,0,-9.42,2.75,0.10,0.25,-0.23,-0.06
1853,0,0,-9.22,2.37,1.06,0.37,-0.60,0.25
1906,0,0,-9.48,2.72,0.12,0.53,-0.44,-0.11
1959,0,0,-8.80,2.19,0.62,0.44,-0.08,-0.58
2012,0,0,-9.38,2.42,0.25,0.44,-0.80,-0.16
2065,0,0,-8.88,2.21,0.83,0.51,-0.20,-0.26
2118,0,0,-8.69,1.76,0.39,0.22,-0.41,0.00
2171,0,0,-9.71,2.18,0.94,0.04,-0.42,-0.39
2224,0,0,-8.61,1.69,0.74,-0.27,0.31,-0.55
2277,0,0,-9.30,1.85,0.38,-0.64,-0.29,-0.40
2330,0,0,-11.17,3.03,0.21,-0.91,-0.10,-0.73
2383,0,0,-9.96,1.22,1.48,-1.18,0.02,-0.90
2436,0,0,-11.14,0.78,1.35,-1.61,-0.35,-0.77
2489,0,0,-9.70,0.96,1.07,-1.35,0.21,-0.79
2542,0,0,-8.83,-0.74,1.11,-0.99,-0.04,-0.61
2595,0,0,-9.33,-0.04,0.77,-0.89,-0.22,-0.44
2648,0,0,-8.43,-0.84,-0.01,-0.46,-0.23,-0.34
2701,0,0,-7.69,-0.84,0.89,-0.45,-0.24,-0.28
2754,0,0,-8.44,-0.79,0.96,-0.19,-0.06,-0.02
2807,0,0,-8.40,-1.02,1.28,-0.41,0.09,-0.11
2860,0,0,-9.24,-0.85,2.09,-0.12,0.13,-0.13
2913,0,0,-8.85,-0.84,1.37,0.02,-0.08,0.29
2966,0,0,-9.59,-0.76,1.35,0.01,0.01,0.01
3019,0,0,-9.74,-1.01,1.06,-0.11,0.14,-0.03
3072,0,0,-9.91,-0.81,0.57,-0.11,-0.02,0.17
3125,0,0,-9.81,-0.90,0.57,-0.05,-0.10,0.30
3178,0,0,-9.19,-0.57,0.59,-0.06,-0.16,0.35
3231,0,0,-9.82,-0.69,0.97,0.00,-0.06,0.06
3284,0,0,-9.61,-0.48,0.17,0.06,-0.22,-0.16
3337,0,0,-8.95,-0.14,-0.19,-0.07,-0.30,0.20
3390,0,0,-8.42,0.11,0.68,-0.13,-0.28,0.41
3443,0,0,-9.27,-0.18,1.56,0.19,-0.48,-0.10
3496,0,0,-10.04,-0.65,1.40,0.26,-0.53,-0.15
3549,0,0,-8.82,-0.92,0.80,0.16,-0.06,-0.12
3602,0,0,-8.37,-1.07,1.13,0.27,-0.24,-0.10
3655,0,0,-8.31,-1.33,1.13,0.48,-0.54,0.10
3708,0,0,-8.79,-0.58,1.61,0.39,-0.66,0.38
3761,0,0,-9.82,1.22,0.64,0.31,-0.45,0.60
3814,0,0,-9.43,2.02,1.43,-0.14,-0.06,0.55
3867,0,0,-8.97,1.57,2.73,0.02,-0.37,0.51
3920,0,0,-9.53,1.47,2.75,0.47,-0.74,0.43
3973,0,0,-8.75,1.84,2.75,0.42,-1.28,0.89
4026,0,0,-9.13,2.07,4.27,0.60,-1.95,-0.32
4079,0,0,-8.02,1.39,4.41,0.70,0.83,-1.32
4132,0,0,-6.46,1.69,3.22,0.69,-0.76,-0.47
4185,0,0,-7.34,0.68,4.21,0.35,-1.62,0.08
4238,0,0,-6.71,0.75,4.06,-0.14,-1.61,-0.91
4291,0,0,-5.56,-0.85,6.25,-0.18,-1.44,-0.72
4344,0,0,-8.56,1.26,7.24,-0.58,-2.13,0.36
4397,4095,0,-7.23,-0.09,5.63,-0.84,-0.70,0.27
4450,4095,0,-6.32,0.31,6.26,-1.25,-0.55,0.46
4503,1,0,-8.16,1.94,8.80,-0.96,-1.34,0.06
4556,0,0,-6.80,-0.90,7.65,-0.67,-0.95,-1.22
4609,0,0,-6.45,-0.90,7.80,-1.42,-1.70,-0.86
4662,0,0,-5.68,-0.61,8.77,2.49,-0.60,0.25
4715,0,0,-6.92,1.79,9.92,0.85,-1.68,1.06
4768,4095,0,-5.51,1.27,10.30,0.04,0.35,-0.09
4821,4095,0,-5.06,0.56,10.08,0.07,0.18,0.11
4874,4095,0,-5.49,1.48,10.28,-0.03,0.83,-0.62
4927,4095,0,-6.24,1.67,9.38,0.22,1.16,-0.69
4980,4095,0,-6.90,1.42,9.58,0.18,0.38,0.21
5033,4095,0,-6.66,-0.85,8.69,-0.01,-0.23,-0.17
5086,4095,0,-5.64,0.83,8.26,-0.30,-0.47,-1.55
5139,4095,0,-6.28,0.44,6.61,0.67,-0.36,-0.32
5192,4095,0,-6.17,-1.25,5.17,0.01,-0.27,0.11
5245,4095,0,-5.56,-1.07,7.53,-0.47,-0.08,0.48
5298,4095,0,-6.09,-0.24,8.82,-1.09,-0.42,0.84
5351,4095,0,-6.25,-0.16,8.74,-1.39,0.06,0.47
5404,4095,0,-6.49,0.53,8.80,-0.98,0.45,0.72
5457,4095,0,-6.33,-0.87,7.92,-0.59,0.39,0.66
5510,4095,0,-6.63,-0.73,8.22,-0.14,-0.28,0.37
5563,4095,0,-6.81,-0.44,8.56,0.20,0.48,-0.11
5616,4095,0,-6.53,-1.34,7.41,0.21,0.91,0.12
5669,4095,0,-7.00,-0.13,7.67,-0.10,0.55,0.16
5722,4095,0,-7.56,-0.33,7.02,-0.15,0.52,0.09
5775,4095,0,-7.44,-0.72,7.32,-0.02,0.43,0.21
5828,4095,0,-7.37,-0.74,6.99,-0.25,0.43,0.17
5881,4095,0,-7.88,-0.06,6.27,-0.25,0.34,0.13
5934,4095,0,-8.03,-0.06,6.01,-0.01,0.04,0.13
5987,0,0,-8.09,-0.20,5.71,-0.04,0.06,0.16
6040,0,0,-7.97,0.13,6.06,0.07,0.03,0.42
6093,4095,0,-8.24,-0.20,5.91,0.30,0.39,0.04
6146,4095,0,-8.23,0.15,5.52,0.27,0.08,0.08
6199,4095,0,-8.30,0.19,5.42,0.07,0.13,-0.17
6252,4095,0,-8.34,0.09,5.32,-0.07,-0.10,-0.32
6305,4095,0,-8.23,-0.22,5.41,-0.31,-0.37,-0.60
6358,4095,0,-8.24,-0.50,5.58,-0.48,-0.51,-0.19
6411,4095,0,-6.70,-0.53,7.97,0.14,-0.87,-0.56
6464,4095,0,-8.46,-0.79,7.60,1.21,-0.49,-1.08
6517,4095,0,-7.79,-1.82,6.05,0.51,-0.88,-0.61
6570,4095,0,-7.47,-0.99,6.05,0.21,-0.42,-0.60
6623,4095,0,-7.98,-0.76,4.50,0.16,-0.34,-0.25
6676,4095,0,-7.47,-0.95,5.17,-0.46,-0.43,0.71
6729,4095,0,-7.61,-0.17,6.84,0.26,0.52,0.85
6782,4095,0,-6.79,-0.83,8.85,0.07,0.68,-0.83
6835,4095,0,-7.03,-0.91,7.61,-0.16,-0.04,0.13
6888,4095,0,-7.45,0.42,6.59,0.27,-0.15,0.37
6941,4095,0,-6.99,-0.62,5.97,-0.14,-0.23,0.78
6994,4095,0,-6.99,-0.36,6.85,0.47,0.69,0.65
7047,4095,0,-7.02,0.17,7.39,0.18,0.41,0.39
7100,4095,0,-6.65,-0.62,7.90,-0.04,-0.60,0.34
7153,4095,0,-8.37,0.60,5.68,0.04,-0.33,-0.76
7206,4095,0,-7.59,-0.22,6.64,0.24,-0.07,-0.67
7259,4095,0,-7.15,-0.60,6.74,0.15,0.04,-1.71
7312,4095,0,-6.86,-1.30,7.12,0.30,0.11,-2.39
7365,4095,0,-7.09,-2.50,6.98,0.53,-0.31,-0.43
7418,4095,0,-7.04,-1.83,7.06,-0.37,-0.01,-1.19
7471,4095,0,-7.11,-2.68,6.36,-0.08,-0.11,-0.44
7524,4095,0,-7.52,-2.75,6.44,0.17,0.05,-0.39
7577,4095,0,-6.32,-3.36,6.81,0.36,0.35,0.11
7630,4095,0,-6.20,-2.49,7.69,0.29,-0.86,1.96
7683,4095,0,-5.04,3.68,6.97,1.47,-1.91,6.30
7736,4095,0,-6.55,-0.38,8.13,-0.30,-0.62,0.05
7789,4095,0,-7.25,1.63,7.37,0.11,-0.39,0.12
7842,4095,0,-7.18,0.21,6.33,0.25,-0.11,0.49
7895,4095,0,-10.10,3.54,7.31,0.15,1.17,2.79
7948,4095,0,-4.24,2.84,5.48,0.95,1.59,1.81
8001,4095,0,-5.26,1.95,6.11,1.14,1.51,1.30
8054,4095,0,-6.33,3.26,5.93,-0.42,-0.13,0.59
8107,4095,0,-8.34,5.43,3.70,-1.23,0.24,3.00
8160,4095,0,-4.51,7.11,7.52,-0.39,0.71,2.16
8213,4095,0,-7.02,7.12,5.26,-0.10,-1.62,2.17
8266,4095,0,-4.32,6.61,6.63,-0.47,-1.93,2.93
8319,4095,0,-2.95,9.15,6.15,-0.48,-0.87,3.54
8372,4095,0,-1.63,7.58,7.11,0.21,-1.21,1.58
8425,4095,0,-0.54,7.42,6.60,-0.27,-1.89,1.60
8478,4095,0,-0.55,7.96,6.56,-0.51,-0.94,-0.11
8531,4095,0,0.72,8.19,6.79,-0.61,-0.25,-0.02
8584,4095,0,1.38,8.02,6.43,0.64,-0.51,-0.25
8637,0,0,1.63,7.70,6.89,0.95,-0.92,0.38
8690,0,0,1.69,6.55,4.98,1.00,-1.06,1.08
8743,0,0,2.04,7.87,6.04,1.16,-0.70,0.75
8796,0,0,2.33,8.07,5.62,1.07,-0.27,0.98
8849,0,0,2.32,8.32,5.27,0.37,-0.38,0.26
8902,0,0,2.90,8.15,5.50,-0.24,0.33,-0.14
8955,0,0,3.25,8.33,5.42,-0.82,0.32,-0.27
9008,0,0,2.27,7.54,5.98,-0.73,0.14,-1.32
9061,0,0,1.89,8.47,6.07,-1.06,-0.12,-1.29
9114,0,0,0.21,8.16,6.31,-0.61,-0.32,-0.75
9167,0,0,2.62,8.69,6.28,-0.68,-0.67,1.67
9220,0,0,0.34,7.45,7.47,0.08,-0.37,1.11
9273,0,0,2.30,8.01,6.62,-0.26,0.71,-0.44
9326,0,0,2.29,6.98,7.84,-0.07,0.30,-0.54
9379,0,0,2.31,8.23,7.35,0.59,0.01,1.20
9432,0,0,0.90,8.58,5.86,1.79,0.19,2.44
9485,0,0,3.94,7.05,6.52,0.63,0.37,1.14
9538,0,0,2.94,7.94,6.38,-0.21,-0.35,-0.03
9591,0,0,3.23,7.86,5.93,-0.20,-0.04,-0.07
9644,0,0,2.67,7.85,6.37,-0.11,-0.15,-0.03
9697,0,0,2.65,7.70,5.96,0.05,0.32,0.15
9750,0,0,3.21,7.81,5.90,0.28,0.05,-0.14
9803,0,0,2.94,7.92,6.87,0.09,0.39,0.01
9856,0,0,2.95,7.83,6.15,0.01,0.16,0.07
9909,0,0,2.72,7.84,6.41,0.14,0.47,1.05
9962,0,0,2.79,7.54,6.48,-0.04,0.23,0.21
10015,0,0,2.74,7.52,6.58,-0.10,0.05,-0.42
10068,0,0,2.75,7.69,6.48,0.05,0.07,-0.33
10121,0,0,2.00,7.51,6.43,0.13,-0.27,-0.90
10174,0,0,2.05,7.97,6.49,0.27,0.24,-0.26
10227,0,0,1.95,8.10,6.04,0.54,0.24,-0.83
10280,0,0,1.31,8.27,6.20,0.36,0.47,-0.54
10333,0,0,0.66,8.34,6.08,0.10,0.27,-0.10
10386,0,0,1.02,8.24,5.91,-0.19,0.35,-0.17
10439,0,0,0.48,8.29,6.34,-0.16,0.55,-0.04
10492,0,0,0.32,8.09,6.53,0.11,0.08,0.08
10545,0,0,0.94,8.37,6.48,-0.24,0.10,-0.07
10598,0,0,0.16,8.17,6.33,-0.26,-0.23,-0.04
10651,0,0,0.69,8.08,6.62,-0.13,0.21,0.02
10704,0,0,0.07,8.00,6.64,0.02,0.22,0.05
10757,0,0,0.41,8.07,6.65,0.07,-0.08,0.02
10810,0,0,0.28,8.14,6.68,0.09,-0.28,0.05
10863,0,0,0.16,8.05,6.45,0.04,-0.75,-0.02
10916,0,0,0.62,8.03,6.56,0.28,-1.05,-0.20
10969,0,0,0.80,8.35,6.53,-0.31,-1.03,0.21
11022,0,0,1.09,7.24,5.98,-0.41,-0.30,-0.24
11075,0,0,1.16,8.19,6.48,0.47,-0.91,-0.96
11128,0,0,-0.85,7.64,5.92,-0.35,-0.76,-2.54
11181,0,0,0.64,10.00,5.67,0.12,-0.39,-1.10
11234,0,0,-1.48,8.03,6.29,0.77,-0.57,-0.17
11287,0,0,-1.54,7.96,6.11,-0.01,-0.01,-0.45
11340,0,0,-2.04,7.62,6.36,-0.53,-0.24,-0.52
11393,0,0,-1.72,7.89,6.33,-0.43,-0.15,-0.29
11446,0,0,-1.75,7.53,6.74,-0.39,-0.00,0.47
11499,0,0,-0.91,7.14,6.48,0.37,-0.33,0.68
11552,0,0,-1.53,8.01,6.26,0.07,0.05,0.60
11605,0,0,-0.39,8.10,6.27,0.04,-0.03,0.56
11658,0,0,-0.04,8.16,6.46,0.07,-0.49,0.26
11711,0,0,-1.25,8.80,6.67,0.15,-0.63,0.21
11764,0,0,0.45,8.08,6.38,0.40,-0.58,0.90
11817,0,0,0.49,8.91,5.60,0.59,-0.55,0.55
11870,0,0,0.19,8.93,5.31,0.92,-0.21,1.22
11923,0,0,1.75,7.91,4.33,0.53,-0.17,0.78
11976,0,0,1.53,8.21,5.43,0.19,0.13,0.52
12029,0,0,1.80,8.80,5.26,0.17,0.18,0.73
12082,0,0,1.80,8.20,6.06,0.10,-0.25,-0.61
12135,0,0,1.51,8.84,5.32,-0.04,-0.14,-0.56
12188,0,0,1.58,8.16,5.41,0.30,-0.26,-0.66
12241,0,0,0.74,8.66,5.08,0.08,-0.08,-0.77
12294,0,0,0.68,9.10,5.01,-0.40,0.12,-0.38
12347,0,0,0.32,9.03,5.17,-0.09,-0.09,-0.03
12400,0,0,0.78,8.80,5.46,-0.03,0.08,0.24
12453,0,0,0.48,8.68,5.33,-0.06,-0.09,0.06
12506,0,0,0.86,8.75,5.41,-0.09,-0.15,0.30
12559,0,0,0.91,8.68,5.39,-0.26,-0.19,-0.10
12612,0,0,0.89,8.72,5.41,-0.29,0.01,-0.06
12665,0,0,1.25,8.85,5.27,-0.27,0.13,0.22
12718,0,0,0.71,8.59,6.04,-0.23,0.01,0.09
12771,0,0,0.96,8.26,6.03,-0.21,0.24,0.33
12824,0,0,1.17,8.30,6.24,-0.43,0.19,0.73
12877,0,0,1.35,8.14,6.30,-0.53,0.00,0.44
12930,0,0,1.21,7.81,6.31,0.17,0.07,0.02
12983,0,0,1.22,8.10,6.49,0.43,0.05,-0.12
13036,0,0,1.34,8.18,6.29,0.42,-0.14,-0.44
13089,0,0,1.11,8.69,6.07,0.15,-0.55,-0.36
13142,0,0,0.98,8.20,6.06,0.23,-0.31,-0.14
13195,0,0,1.16,8.63,5.83,0.03,-0.37,0.06
13248,0,0,1.21,8.43,6.10,-0.68,-0.16,0.40
13301,0,0,1.15,7.83,6.58,-0.87,-0.15,-0.06
13354,0,0,1.30,7.74,6.45,-0.27,-0.30,-0.21
13407,0,0,1.29,7.79,6.69,0.37,-0.45,0.01
13460,0,0,1.23,7.95,6.11,0.73,-0.93,-0.02
13513,0,0,1.77,8.27,6.08,0.89,-0.09,0.09
13566,0,0,1.36,8.74,5.92,0.24,-0.12,-0.03
13619,0,0,2.06,8.54,5.86,-0.16,-0.01,0.15
13672,0,0,1.24,8.43,5.88,-0.29,-0.33,0.03
13725,0,0,1.70,8.15,6.16,-0.27,0.04,0.11
13778,0,0,1.70,8.16,6.09,-0.13,-0.41,0.00
13831,0,0,1.89,8.26,6.02,-0.23,-0.13,0.03
13884,0,0,1.52,8.10,6.33,-0.31,0.12,0.10
13937,0,0,1.64,7.96,6.35,-0.22,0.15,0.08
13990,0,0,1.70,7.82,6.38,-0.02,0.42,-0.01
14043,0,0,1.40,7.74,6.55,0.24,0.05,-0.05
14096,0,0,1.81,7.97,6.35,0.49,0.12,-0.03
14149,0,0,1.40,8.35,6.22,0.65,-0.05,-0.15
14202,0,0,1.63,8.69,5.94,0.40,-0.06,-0.11
14255,0,0,1.55,8.64,5.88,-0.04,-0.13,-0.01
14308,0,0,1.35,8.48,6.00,-0.33,-0.30,0.03
14361,0,0,1.39,8.03,6.02,-0.25,-0.30,-0.04
14414,0,0,1.36,8.19,6.22,0.06,0.01,-0.06
14467,0,0,1.17,8.38,6.28,0.16,0.16,-0.20
14520,0,0,1.17,8.43,6.27,0.08,0.13,-0.02
14573,0,0,1.34,8.37,5.70,0.04,-0.04,-0.01
14626,0,0,1.09,8.26,5.84,0.06,-0.09,-0.10
14679,0,0,1.17,8.37,6.05,0.15,-0.45,-0.04
14732,0,0,0.96,8.45,6.61,0.07,-0.46,-0.09
14785,0,0,1.31,8.52,5.63,0.15,-0.35,0.02
14838,0,0,1.44,8.37,5.37,0.12,-0.09,0.01
14891,0,0,1.09,8.58,4.83,-0.18,0.08,-0.28
14944,0,0,1.52,8.48,5.09,0.06,-0.27,-0.17
14997,0,0,1.17,8.51,5.69,0.11,-0.14,-0.12
15050,0,0,1.13,8.55,5.64,0.04,-0.23,-0.04
15103,0,0,1.09,8.49,5.69,-0.05,-0.27,-0.06
15156,0,0,1.11,8.55,5.58,0.05,-0.18,-0.03
15209,0,0,1.01,8.54,5.54,0.03,-0.14,-0.02
15262,0,0,1.13,8.57,5.56,0.06,-0.01,-0.02
15315,0,0,0.95,8.54,5.55,0.19,0.12,-0.09
15368,0,0,0.96,8.65,5.57,0.01,-0.19,0.00
15421,0,0,1.07,8.57,5.49,-0.06,-0.16,-0.05
15474,0,0,1.13,8.31,5.72,0.12,-0.03,-0.04
15527,0,0,1.18,8.49,5.72,0.02,-0.49,-0.04
15580,0,0,1.44,8.59,5.50,-0.08,-0.72,-0.04
15633,0,0,1.00,8.71,5.40,0.02,-0.69,-0.09
15686,0,0,1.03,8.59,5.35,-0.05,-0.77,-0.06
15739,0,0,1.18,8.69,5.43,0.06,-0.29,-0.05
15792,0,0,1.43,8.36,5.65,0.29,0.02,-0.19
15845,0,0,1.27,8.56,5.40,0.09,-0.03,-0.08
15898,0,0,0.93,8.66,5.28,-0.03,0.15,-0.00
15951,0,0,1.23,8.84,5.51,0.08,0.15,-0.06
16004,0,0,1.24,8.47,5.57,0.18,-0.03,-0.14
16057,0,0,0.82,8.83,5.13,0.12,-0.29,-0.12
16110,0,0,0.81,8.82,5.04,0.03,-0.14,-0.04
16163,0,0,0.94,8.73,5.26,0.06,-0.06,-0.05
16216,0,0,0.90,8.71,5.24,-0.00,-0.23,-0.04
16269,0,0,0.87,8.79,5.20,0.04,-0.24,-0.04
16322,0,0,0.95,8.70,5.25,0.06,-0.08,-0.04
16375,0,0,0.95,8.74,5.24,0.01,-0.13,-0.03
16428,0,0,0.96,8.78,5.25,-0.00,-0.13,-0.03
16481,0,0,0.97,8.73,5.33,-0.06,-0.25,-0.05
16534,0,0,0.95,8.65,5.25,-0.11,-0.21,-0.05
16587,0,0,0.85,8.70,5.28,-0.04,-0.20,-0.03
16640,0,0,0.79,8.69,5.32,0.00,-0.12,-0.03
16693,0,0,0.84,8.72,5.28,-0.01,-0.16,-0.01
16746,0,0,0.85,8.66,5.38,-0.02,-0.16,-0.00
16799,0,0,0.90,8.66,5.33,0.04,-0.07,-0.01
16852,0,0,0.91,8.70,5.34,0.07,-0.08,-0.01
16905,0,0,0.88,8.71,5.31,0.02,-0.14,-0.01
16958,0,0,0.89,8.67,5.32,0.03,-0.05,-0.01
17011,0,0,0.83,8.69,5.28,0.07,0.05,-0.02
17064,0,0,0.86,8.73,5.22,0.28,0.17,-0.13
17117,0,0,0.25,9.05,5.15,0.25,-0.18,-0.85
17170,0,0,0.11,8.95,5.17,-0.20,-0.51,-0.21
17223,0,0,0.36,8.75,5.22,0.02,-0.63,0.00
17276,0,0,0.76,8.64,5.25,0.40,0.18,-0.19
17329,0,0,-2.88,10.28,5.35,0.45,0.49,-2.26
17382,0,0,-1.50,8.92,4.14,0.12,-0.25,-1.63
17435,0,0,-1.26,8.77,4.81,-0.52,-0.56,-0.37
17488,0,0,-1.47,8.61,5.05,-0.42,-0.37,-0.15
17541,0,0,-1.42,8.66,5.12,-0.16,-0.17,-0.08
17594,0,0,-1.26,8.52,5.38,-0.13,0.05,-0.23
17647,0,0,-1.47,8.43,5.49,-0.09,-0.04,-0.21
17700,0,0,-1.89,8.54,5.47,-0.45,-0.47,-0.22
17753,0,0,-1.66,8.14,5.77,-0.31,-0.48,-0.27
17806,0,0,-1.78,8.23,5.93,-0.10,-0.21,-0.18
17859,0,0,-2.01,8.06,5.64,0.16,0.11,-0.06
17912,0,0,-2.05,8.24,5.55,-0.08,0.05,-0.15
17965,0,0,-1.97,8.13,5.84,-0.15,-0.15,-0.20
18018,0,0,-2.05,8.03,5.97,-0.00,-0.16,-0.07
18071,0,0,-2.09,8.00,5.93,-0.11,-0.25,-0.10
18124,0,0,-2.02,8.03,5.98,0.02,-0.06,-0.04
18177,0,0,-2.19,8.01,5.89,0.06,0.01,-0.03
18230,0,0,-2.24,7.92,5.80,0.09,-0.10,-0.09
18283,0,0,-2.44,8.10,5.78,-0.02,-0.20,-0.11
18336,0,0,-2.15,8.09,5.79,0.16,-0.34,-0.09
18389,0,0,-2.08,8.22,5.69,-0.03,-0.49,-0.02
18442,0,0,-2.30,7.89,5.66,0.03,-0.25,-0.03
18495,0,0,-1.96,7.85,6.03,-0.09,-0.17,-0.02
18548,0,0,-2.03,8.10,6.14,0.04,-0.05,-0.03
18601,0,0,-2.06,7.83,6.06,0.00,-0.08,-0.03
18654,0,0,-2.31,8.00,5.84,-0.18,-0.16,-0.08
18707,0,0,-2.05,7.90,5.97,0.05,0.03,-0.01
18760,0,0,-2.10,8.02,6.09,-0.07,-0.21,0.01
18813,0,0,-2.20,7.98,6.11,0.04,-0.46,-0.05
18866,0,0,-2.44,7.89,5.83,0.18,-0.51,-0.03
18919,0,0,-2.23,7.92,5.96,-0.04,-0.50,0.01
18972,0,0,-2.13,7.81,5.99,0.01,-0.05,0.03
19025,0,0,-2.01,8.03,6.04,0.08,0.23,-0.00
19078,0,0,-2.01,7.87,6.18,0.08,-0.12,0.00
19131,0,0,-1.04,8.23,5.82,0.97,-0.11,0.35
19184,0,0,-0.79,8.26,5.67,0.81,0.03,1.35
19237,0,0,-1.97,7.64,5.40,-0.71,0.56,0.80
19290,0,0,-1.37,8.66,6.13,-0.22,-0.17,0.48
19343,0,0,-1.08,8.06,5.93,-0.15,-0.43,0.57
19396,0,0,-0.19,8.90,5.52,0.13,-0.46,-0.08
19449,0,0,-1.76,8.42,5.58,0.22,-0.20,-0.40
19502,0,0,-1.14,8.31,5.37,0.56,0.18,0.01
19555,0,0,-0.77,8.79,4.99,0.06,0.37,1.10
19608,0,0,0.05,8.61,5.33,1.01,0.32,2.25
19661,0,0,0.88,8.57,4.89,0.15,0.61,2.09
19714,0,0,2.39,8.24,5.21,0.19,0.16,1.35
19767,0,0,1.57,8.53,4.97,-0.09,0.15,1.34
19820,0,0,3.10,8.22,5.46,-0.19,-0.04,0.77
19873,0,0,2.72,8.59,5.03,-0.04,-0.26,0.05
19926,0,0,2.64,8.85,4.92,0.01,0.04,0.55
19979,0,0,3.09,8.62,5.05,0.29,-0.10,1.52
20032,0,0,4.09,8.37,5.23,0.29,-0.09,0.09
20085,0,0,4.07,8.32,4.97,0.05,-0.08,0.30
20138,0,0,4.47,8.27,5.50,-0.09,-0.18,0.67
20191,0,0,4.13,8.45,5.32,0.56,-1.01,0.65
20244,0,0,4.28,8.64,5.04,1.43,-0.20,1.72
20297,0,0,5.44,6.78,1.99,0.07,0.26,0.58
20350,0,0,4.88,7.59,5.37,0.66,-0.55,-0.40
20403,0,0,4.99,7.69,2.80,0.21,-0.45,-0.07
20456,0,0,5.97,8.05,3.68,0.13,-0.40,-0.25
20509,0,0,5.24,8.16,3.21,0.83,-1.53,-1.30
20562,0,0,4.37,8.24,2.30,-0.19,-0.88,-0.48
20615,0,0,2.17,8.01,2.33,0.51,-1.45,-4.60
20668,0,0,4.47,9.46,2.16,-0.04,-0.90,-0.13
20721,0,0,3.00,9.31,2.40,0.32,-0.83,0.36
20774,0,0,3.93,9.36,1.75,0.55,-1.09,0.15
20827,0,0,3.28,9.16,1.12,0.61,-1.51,0.32
20880,0,0,3.31,8.86,0.54,0.34,-0.93,0.40
20933,0,0,3.40,8.97,0.71,-0.04,-0.05,-0.31
20986,0,0,3.75,9.23,0.86,-0.16,0.49,-0.95
21039,0,0,3.47,9.04,0.50,-0.22,0.16,-0.14
21092,0,0,3.10,9.06,0.74,-0.45,0.23,0.13
21145,0,0,3.02,9.19,1.30,-0.84,0.47,-0.28
21198,0,0,3.26,9.01,2.06,-0.94,0.33,-0.30
21251,0,0,3.33,9.09,2.43,-1.27,0.22,-0.25
21304,0,0,3.24,10.27,3.05,-1.86,-0.00,-0.07
21357,0,0,2.96,8.59,4.02,-0.79,-0.22,0.43
21410,0,0,3.14,8.21,4.52,-0.68,-0.27,0.95
21463,0,0,4.45,8.28,4.30,-0.04,-0.28,0.86
21516,0,0,4.39,8.71,4.08,-0.13,-0.37,0.68
21569,0,0,3.62,7.68,6.10,0.01,-0.46,-0.03
21622,0,0,3.97,8.39,5.19,-0.59,-0.18,-0.70
21675,0,0,4.36,7.91,4.79,-0.06,-0.15,-0.45
21728,0,0,2.90,8.46,5.30,-0.21,0.00,-0.96
21781,0,0,4.51,8.00,4.90,0.08,-0.33,-0.07
21834,0,0,3.39,8.18,5.38,-0.48,-0.57,0.24
21887,0,0,3.77,8.39,5.25,-0.13,-1.52,0.25
21940,0,0,4.27,7.84,4.55,0.10,-1.14,0.01
21993,0,0,4.62,8.59,3.90,-0.22,-0.40,-0.48
22046,0,0,4.14,8.18,4.78,-0.23,-0.25,-0.18
22099,0,0,4.43,8.22,4.61,0.17,0.16,0.74
22152,0,0,4.78,8.02,4.53,0.23,0.37,1.18
22205,0,0,4.83,7.99,4.38,0.27,-0.36,0.55
22258,0,0,5.24,7.57,4.55,0.13,-0.66,0.04
22311,0,0,4.99,7.89,4.34,0.15,-0.14,-0.04
22364,0,0,5.08,7.71,4.26,0.13,0.04,-0.37
22417,0,0,6.39,7.74,6.01,0.24,-0.13,-0.74
22470,0,0,3.39,8.33,5.24,-0.20,0.40,-0.26
22523,0,0,4.30,8.00,3.85,-0.23,0.88,-0.26
22576,0,0,4.71,8.04,3.87,0.10,0.76,0.09
22629,0,0,4.10,8.31,3.83,0.32,0.52,0.13
22682,0,0,4.45,8.28,4.56,0.52,0.31,0.17
22735,0,0,3.87,7.92,7.42,0.68,0.60,0.34
22788,0,0,3.64,8.25,4.57,0.13,-0.09,-0.11
22841,0,0,4.28,8.26,4.57,0.10,0.15,-0.11
22894,0,0,3.65,8.36,4.78,0.10,0.34,-0.00
22947,0,0,3.81,8.39,4.64,-0.06,0.28,0.03
23000,0,0,3.63,8.21,4.77,0.09,0.46,0.08
23053,0,0,3.50,8.35,5.05,0.09,0.37,0.02
23106,0,0,3.50,8.23,5.01,0.05,0.21,0.03
23159,0,0,3.54,8.36,5.01,0.07,0.29,-0.05
23212,0,0,3.31,8.30,5.05,0.10,-0.01,-0.01
23265,0,0,3.37,8.36,5.03,-0.04,-0.06,-0.06
23318,0,0,3.25,8.30,5.12,-0.08,-0.10,-0.03
23371,0,0,3.20,8.30,5.19,-0.09,-0.09,-0.05
23424,0,0,3.35,8.25,5.22,-0.15,0.05,-0.04
23477,0,0,2.86,8.37,5.31,-0.20,-0.05,-0.40
23530,0,0,3.08,8.16,5.48,-0.27,-0.17,0.05
23583,0,0,3.30,8.14,5.44,-0.11,-0.09,0.03
23636,0,0,3.11,8.20,5.75,-0.19,-0.07,0.01
23689,0,0,3.20,8.03,5.73,-0.23,-0.04,-0.01
23742,0,0,3.18,7.89,5.78,-0.13,-0.27,-0.02
23795,0,0,3.14,7.98,5.84,-0.07,-0.37,-0.10
23848,0,0,3.22,8.06,5.83,-0.10,-0.37,-0.05
23901,0,0,3.45,7.83,5.90,-0.10,-0.07,0.07
23954,0,0,3.29,7.65,5.83,-0.02,-0.18,0.05
24007,0,0,3.62,7.85,5.77,0.18,-0.08,-0.01
24060,0,0,3.35,7.92,5.71,0.35,-0.20,-0.01
24113,0,0,3.55,7.98,5.44,0.56,-0.32,-0.01
24166,0,0,3.45,8.23,5.26,0.74,-0.36,-0.08
24219,0,0,3.63,8.31,4.80,0.53,-0.25,-0.03
24272,0,0,3.52,8.44,4.68,0.53,-0.19,-0.03
24325,0,0,3.51,8.47,4.71,0.53,0.05,-0.05
24378,0,0,3.68,8.81,4.07,0.37,-0.01,-0.01
24431,0,0,3.48,8.91,4.12,-0.08,0.08,0.02
24484,0,0,3.50,8.65,4.36,-0.46,-0.01,0.11
24537,0,0,3.58,8.42,4.52,-0.44,-0.12,-0.04
24590,0,0,3.45,8.59,4.99,-0.58,-0.16,-0.24
24643,0,0,3.53,8.20,5.11,-0.74,0.01,-0.34
24696,0,0,3.01,8.09,5.46,-0.53,0.00,-0.23
24749,0,0,2.70,7.99,5.84,-0.38,0.17,-0.40
24802,0,0,2.85,8.01,6.02,-0.29,0.01,0.00
24855,0,0,2.82,7.93,6.00,0.06,-0.14,0.01
24908,0,0,2.90,7.90,5.76,0.30,-0.14,-0.03
24961,0,0,3.08,8.04,5.65,0.68,0.07,-0.06
25014,0,0,2.79,8.28,5.40,0.61,-0.07,-0.07
25067,0,0,2.80,8.48,5.28,0.59,-0.22,-0.09
25120,0,0,3.07,8.78,4.88,0.50,-0.39,-0.07
25173,0,0,3.06,8.83,4.81,0.35,-0.56,0.00
25226,0,0,3.06,8.79,4.56,0.03,-0.33,0.00
25279,0,0,2.92,8.74,4.41,-0.08,0.00,0.00
25332,0,0,2.58,8.82,4.68,-0.16,-0.13,0.01
25385,0,0,3.03,8.60,4.69,-0.24,-0.00,-0.01
25438,0,0,2.87,8.80,4.96,-0.38,-0.03,-0.03
25491,0,0,2.75,8.43,5.07,-0.34,0.15,-0.04
25544,0,0,2.64,8.30,5.41,-0.22,0.26,-0.10
25597,0,0,2.53,8.37,5.54,0.11,-0.05,-0.08
25650,0,0,2.90,8.25,5.39,0.08,0.28,-0.06
25703,0,0,2.15,8.42,5.51,0.03,-0.02,-0.03
25756,0,0,2.61,8.40,5.30,0.11,-0.38,-0.03
25809,0,0,2.49,8.56,5.28,0.04,-0.25,-0.05
25862,0,0,2.58,8.60,5.24,-0.02,-0.12,-0.01
25915,0,0,2.55,8.47,5.31,-0.07,-0.13,0.00
25968,0,0,2.40,8.62,5.43,-0.19,-0.23,0.01
26021,0,0,2.57,8.20,5.74,-0.13,-0.21,0.02
26074,0,0,2.53,8.13,5.57,-0.17,-0.66,0.06
26127,0,0,2.79,8.31,5.50,-0.10,-0.54,0.03
26180,0,0,2.99,8.30,5.68,-0.05,-0.49,0.02
26233,0,0,2.94,8.08,5.53,-0.53,0.40,0.11
26286,0,0,2.67,8.30,5.79,-0.24,0.43,0.03
26339,0,0,2.24,7.93,6.18,0.09,0.15,-0.01
26392,0,0,2.60,8.05,6.22,0.18,0.07,-0.01
26445,0,0,2.68,8.00,5.78,0.45,-0.16,-0.04
26498,0,0,2.77,8.42,5.58,0.25,-0.38,-0.03
26551,0,0,2.38,8.26,5.64,0.31,-0.91,-0.02
26604,0,0,2.95,8.54,5.21,-0.03,-0.23,0.09
26657,0,0,2.90,8.36,5.65,-0.06,0.96,0.07
26710,0,0,2.79,8.32,5.59,0.38,-0.29,0.01
26763,0,0,2.83,8.40,5.48,0.04,-0.76,0.03
26816,0,0,3.13,8.55,5.20,0.01,-0.13,0.07
26869,0,0,2.56,8.13,6.12,-0.10,0.54,-0.35
26922,0,0,2.71,8.17,5.82,-0.06,-0.55,0.12
26975,0,0,2.68,8.07,5.78,-0.01,-0.16,0.12
27028,0,0,2.85,8.22,5.54,-0.03,-0.18,0.08
27081,0,0,2.60,8.10,6.17,0.05,-0.49,-0.08
27134,0,0,3.46,8.29,4.64,0.75,-1.55,-0.05
27187,0,0,3.29,8.19,5.35,0.19,-0.40,-0.04
27240,0,0,3.25,8.33,5.20,0.08,-0.37,-0.04
27293,0,0,3.17,8.40,5.06,0.08,-0.31,-0.03
27346,0,0,3.12,8.51,4.98,0.10,-0.21,-0.02
27399,0,0,3.21,8.44,5.00,0.14,-0.07,-0.00
27452,0,0,3.49,8.41,5.11,0.08,-0.03,0.00
27505,0,0,3.47,8.40,5.10,0.13,-0.10,-0.06
27558,0,0,3.58,8.49,4.87,0.10,-0.52,-0.11
27611,0,0,3.17,8.60,4.77,-0.01,-0.70,-0.09
27664,0,0,3.35,8.31,4.88,0.00,-0.60,-0.13
27717,0,0,3.30,8.43,4.67,0.04,-0.25,-0.09
27770,0,0,3.39,8.52,4.65,0.05,-0.25,-0.07
27823,0,0,3.33,8.64,4.49,-0.34,-0.37,-0.40
27876,0,0,3.17,8.49,4.82,-0.15,-0.26,-0.15
27929,0,0,3.11,8.45,4.89,0.03,0.01,-0.03
27982,0,0,3.11,8.45,4.91,0.07,0.05,-0.05
28035,0,0,2.96,8.70,4.85,0.09,0.14,-0.03
28088,0,0,3.27,8.41,4.94,0.07,-0.05,-0.03
28141,0,0,2.93,8.59,4.84,0.01,-0.16,-0.02
28194,0,0,2.98,8.57,4.81,0.02,-0.04,-0.01
28247,0,0,3.00,8.52,4.94,0.06,-0.12,-0.02
28300,0,0,3.06,8.48,4.93,0.02,-0.13,-0.01
28353,0,0,2.98,8.53,4.93,0.02,-0.13,-0.02
28406,0,0,3.05,8.47,4.94,0.05,-0.09,-0.03
28459,0,0,2.96,8.53,4.90,0.04,-0.14,-0.03
28512,0,0,2.91,8.61,4.85,0.05,-0.16,-0.03
28565,0,0,2.96,8.55,4.83,0.03,-0.12,-0.01
28618,0,0,2.99,8.56,4.82,0.03,-0.09,-0.01
28671,0,0,2.98,8.58,4.81,0.04,-0.09,-0.02
28724,0,0,2.93,8.56,4.91,-0.02,-0.18,-0.00
28777,0,0,2.93,8.57,4.93,0.03,-0.08,-0.02
28830,0,0,2.90,8.58,4.89,0.06,-0.13,-0.03
28883,4095,0,3.00,8.52,4.83,0.06,-0.25,-0.02
28936,0,0,3.00,8.54,4.81,-0.09,-0.09,0.00
28989,0,0,2.92,8.55,4.86,-0.01,-0.01,-0.01
29042,0,0,2.82,8.57,5.05,0.04,-0.04,-0.09
29095,0,0,2.78,8.59,4.92,-0.04,0.01,-0.01
29148,0,0,2.79,8.59,4.90,-0.06,-0.16,-0.00
29201,0,0,2.89,8.55,4.93,-0.00,-0.14,-0.03
29254,0,0,2.85,8.54,4.98,0.03,-0.12,-0.02
29307,0,0,2.87,8.54,4.92,0.00,-0.19,-0.01
29360,4095,0,2.82,8.57,4.95,0.04,-0.11,-0.02
29413,4095,0,2.81,8.56,4.92,0.00,-0.12,-0.01
29466,4095,0,2.83,8.56,4.95,0.04,-0.16,-0.01
29519,4095,0,2.87,8.54,4.92,0.02,-0.14,-0.01
29572,4095,0,2.87,8.55,4.93,-0.02,-0.18,-0.00
29625,4095,0,2.84,8.55,5.02,-0.10,-0.20,-0.05
29678,4095,0,2.82,8.52,5.04,0.03,-0.19,-0.07
29731,0,0,2.76,8.55,5.01,0.05,-0.12,-0.02
29784,0,0,2.79,8.54,5.03,-0.02,-0.17,-0.01
29837,0,0,2.71,8.43,5.05,-0.07,-0.12,-0.10
29890,0,0,2.74,8.54,5.10,0.06,-0.11,-0.04
29943,0,0,2.72,8.53,5.03,-0.05,-0.20,-0.03
29996,4095,0,3.00,9.12,4.95,-0.64,-0.08,-1.85
30049,4095,0,2.38,8.49,5.21,0.08,-0.09,-0.05
30102,4095,0,2.36,8.63,5.06,0.31,-0.04,-0.28
30155,0,0,2.26,8.61,5.09,-0.04,-0.09,-0.02
30208,0,0,2.24,8.63,5.10,0.08,-0.11,-0.04
30261,0,0,2.22,8.67,5.11,0.01,-0.14,-0.02
30314,0,0,2.22,8.63,5.12,-0.03,-0.22,-0.02
30367,0,0,2.23,8.58,5.12,-0.11,-0.24,-0.02
30420,0,0,2.28,8.57,5.18,0.02,-0.16,-0.02
30473,0,0,2.28,8.57,5.16,-0.04,-0.18,-0.04
30526,0,0,2.23,8.59,5.18,0.04,-0.09,-0.02
30579,0,0,2.23,8.60,5.16,0.06,-0.06,-0.04
30632,0,0,2.22,8.60,5.16,0.01,-0.16,-0.01
30685,0,0,2.24,8.59,5.16,0.01,-0.10,-0.01
30738,0,0,2.22,8.64,5.18,0.02,-0.12,-0.01
30791,0,0,2.19,8.60,5.19,0.02,-0.18,-0.01
30844,0,0,2.21,8.62,5.17,0.00,-0.20,-0.01
30897,0,0,2.21,8.60,5.18,0.03,-0.11,-0.02
30950,0,0,2.22,8.60,5.16,0.02,-0.14,-0.01
31003,0,0,2.22,8.61,5.17,0.02,-0.13,-0.01
31056,0,0,2.25,8.62,5.15,0.03,-0.15,-0.01
31109,0,0,2.24,8.63,5.12,0.02,-0.15,-0.01
31162,0,0,2.23,8.62,5.17,0.02,-0.17,-0.01
31215,0,0,2.20,8.62,5.15,0.04,-0.13,-0.02
31268,0,0,2.24,8.60,5.16,0.01,-0.14,-0.01
31321,0,0,2.25,8.61,5.16,0.02,-0.12,-0.01
31374,0,0,2.25,8.60,5.18,0.05,-0.07,-0.03
31427,0,0,2.19,8.63,5.10,0.05,0.01,-0.03
31480,0,0,2.15,8.64,5.14,0.06,-0.01,-0.03
31533,0,0,2.11,8.66,5.16,0.02,-0.06,-0.01
31586,0,0,2.08,8.66,5.16,-0.05,-0.18,0.01
31639,0,0,2.09,8.50,5.32,-0.26,-0.31,-0.09
31692,0,0,2.60,9.19,5.33,-0.93,-0.16,-2.37
31745,0,0,1.50,8.51,5.48,-0.03,-0.12,-0.09
31798,0,0,1.36,8.54,5.54,0.12,0.18,-0.07
31851,0,0,1.25,8.59,5.55,0.02,0.22,-0.02
31904,0,0,1.11,8.56,5.68,0.05,0.03,-0.03
31957,0,0,1.12,8.56,5.57,-0.02,-0.18,-0.01
32010,0,0,1.18,8.56,5.52,0.03,-0.04,-0.02
32063,0,0,1.06,8.48,5.67,-0.08,0.18,-0.06
32116,0,0,0.51,8.17,5.73,-0.13,0.36,-1.11
32169,0,0,0.41,8.88,5.66,-0.02,0.24,-0.43
32222,4095,0,-0.33,8.47,5.74,-0.08,0.12,-0.32
32275,4095,0,-0.67,8.33,5.84,0.08,0.05,-0.10
32328,4095,0,-0.61,8.17,6.25,0.09,0.12,-0.08
32381,4095,0,-1.16,9.29,5.29,-0.18,-0.01,-0.40
32434,4095,0,-1.16,8.13,5.96,-0.12,0.20,-0.00
32487,4095,0,-1.43,7.94,6.10,-0.12,0.23,-0.16
32540,4095,0,-1.27,8.20,5.91,0.02,0.06,-0.05
32593,4095,0,9.95,4.02,8.50,-1.89,-3.18,-0.75
32646,4095,0,-0.04,3.70,3.11,-3.50,-5.84,0.25
32699,4095,0,0.04,7.94,16.17,-3.84,-4.89,-2.86
32752,4095,0,1.64,7.21,14.57,-0.29,-4.66,1.01
32805,4095,0,-3.04,6.46,9.85,-0.16,-0.65,-0.42
32858,4095,0,2.05,5.79,11.40,0.73,3.54,-0.90
32911,4095,0,10.52,5.78,9.59,1.44,2.87,2.33
32964,4095,0,2.77,4.05,5.69,0.24,-1.26,-0.65
33017,4095,0,3.43,3.70,8.84,-0.55,-1.21,-0.27
33070,4095,0,2.80,5.44,10.01,-0.82,-1.09,-0.09
33123,4095,0,3.14,7.00,12.46,-0.50,-1.22,0.14
33176,4095,0,-1.33,5.47,5.35,-0.96,0.63,0.00
33229,4095,0,5.46,6.14,10.34,0.02,2.62,-0.82
33282,4095,0,6.26,5.29,8.40,1.00,0.62,0.02
33335,4095,0,5.96,5.83,9.68,0.31,-2.21,-0.25
33388,4095,0,3.66,5.57,11.34,0.13,-3.21,0.03
33441,4095,0,1.37,5.26,10.63,0.06,-1.23,0.04
33494,4095,0,0.82,4.60,7.98,0.10,0.92,0.37
33547,4095,0,3.92,6.18,8.93,-0.81,1.63,-0.42
33600,4095,0,4.17,6.37,7.59,-0.09,0.17,-0.10
33653,4095,0,3.88,6.24,7.80,0.67,-0.99,-0.17
33706,4095,0,3.42,5.43,8.58,0.66,-1.31,-0.41
33759,4095,0,3.61,5.05,10.43,0.92,-0.73,0.25
33812,4095,0,1.37,4.30,7.87,-0.19,0.67,0.17
33865,4095,0,3.11,5.25,8.60,-0.89,1.92,0.31
33918,4095,0,4.49,5.86,8.67,-0.69,1.50,0.77
33971,4095,0,3.14,6.35,6.82,-0.75,0.27,0.41
34024,4095,0,3.30,5.62,7.15,0.13,0.16,0.10
34077,4095,0,4.28,5.66,9.03,0.37,-0.19,-0.30
34130,4095,0,3.66,3.77,8.12,1.31,-1.17,1.70
34183,4095,0,4.61,5.09,10.72,-0.49,-1.21,-0.44
34236,4095,0,2.99,5.67,10.30,-0.11,-1.04,0.24
34289,4095,0,1.68,4.32,7.74,0.06,0.10,0.05
34342,4095,0,4.17,4.78,9.13,0.07,0.83,-0.07
34395,4095,0,4.55,4.62,8.46,-0.09,0.34,0.08
34448,4095,0,4.40,5.17,8.67,-0.52,-0.29,0.12
34501,4095,0,2.93,5.39,8.70,-0.33,-0.81,0.38
34554,4095,0,1.92,5.22,7.99,-0.01,0.13,-0.08
34607,4095,0,3.05,4.33,8.07,0.42,0.81,-0.12
34660,4095,0,3.70,3.90,7.75,0.02,0.56,-0.18
34713,4095,0,3.59,4.44,8.10,-0.68,-0.53,0.07
34766,4095,0,3.56,5.96,9.42,-1.11,-0.84,-0.40
34819,4095,0,4.06,5.74,9.90,0.09,-0.14,-0.29
34872,4095,0,5.49,5.35,11.77,1.79,-0.83,-0.25
34925,4095,0,2.56,3.68,9.68,0.87,-1.65,0.28
34978,4095,0,0.39,1.83,7.64,-0.06,-0.59,0.09
35031,4095,0,3.91,4.96,11.43,-1.54,0.98,-0.72
35084,4095,0,4.17,5.71,8.59,-0.77,1.26,0.08
35137,4095,0,4.76,5.23,7.22,-0.20,0.67,-0.32
35190,4095,0,5.52,5.37,9.02,0.11,-1.04,-0.60
35243,4095,0,3.34,4.71,9.54,0.62,-2.02,-0.13
35296,4095,0,2.35,4.08,9.96,0.66,-0.84,-0.03
35349,4095,0,2.47,3.59,9.38,0.03,0.60,-0.19
35402,4095,0,3.49,3.83,8.50,-0.50,0.97,-0.05
35455,4095,0,4.41,4.92,8.67,-0.76,0.10,0.03
35508,4095,0,3.78,5.59,8.70,-0.38,-0.69,-0.14
35561,4095,0,3.14,5.31,9.07,0.41,-0.72,-0.09
35614,4095,0,3.32,4.61,9.50,0.80,-0.27,-0.11
35667,4095,0,3.47,4.11,9.22,0.37,-0.01,-0.15
35720,4095,0,3.82,4.08,9.04,-0.17,0.05,-0.10
35773,4095,0,3.81,4.57,8.85,-0.45,-0.16,0.01
35826,4095,0,3.46,5.13,8.60,-0.30,-0.34,-0.05
35879,4095,0,3.64,5.38,9.20,0.14,-0.25,-0.09
35932,4095,0,3.66,4.91,9.11,0.40,-0.26,-0.05
35985,4095,0,3.76,4.44,9.12,0.32,-0.14,-0.07
36038,4095,0,3.64,4.29,8.81,-0.04,-0.15,-0.08
36091,4095,0,3.68,4.55,8.77,-0.18,-0.14,-0.02
36144,4095,0,3.83,4.64,5.45,-0.19,0.01,-0.08
36197,4095,0,6.36,3.39,9.58,-0.22,-2.63,1.10
36250,4095,0,-3.10,-0.41,11.83,0.51,0.34,3.93
36303,4095,0,9.85,9.32,9.15,-0.60,-0.15,0.47
36356,4095,0,4.58,2.41,10.65,0.73,-0.48,0.67
36409,4095,0,5.60,3.25,9.33,-0.54,0.23,0.78
36462,4095,0,4.02,3.12,9.30,0.22,-0.19,0.30
36515,4095,0,5.45,2.66,10.23,0.63,-0.07,1.94
36568,4095,0,4.69,2.87,8.72,0.08,0.42,0.61
36621,4095,0,4.91,3.83,9.56,0.44,0.74,1.28
36674,4095,0,5.33,2.75,9.04,0.80,0.04,1.18
36727,4095,0,4.80,3.75,8.83,0.60,-0.28,0.54
36780,4095,0,6.02,3.14,9.51,0.84,-0.75,1.62
36833,4095,0,8.12,4.02,9.86,0.36,-1.45,0.89
36886,4095,0,4.11,4.52,8.00,2.34,-0.95,0.93
36939,4095,0,8.18,3.70,7.67,4.57,0.44,-0.50
36992,4095,0,5.64,4.14,5.54,2.69,-1.08,0.41
37045,4095,0,6.96,5.92,6.25,1.16,-2.08,-0.91
37098,4095,0,5.56,7.88,5.37,0.64,-1.96,-1.44
37151,4095,0,6.52,9.43,4.11,0.36,-1.07,-0.66
37204,4095,0,1.95,9.67,3.53,2.76,-0.75,-4.69
37257,4095,0,3.73,8.86,1.34,1.76,0.52,-2.49
37310,4095,0,1.11,7.01,1.97,0.60,0.82,-2.43
37363,4095,0,2.02,15.95,-1.44,0.24,0.88,-2.57
37416,4095,0,0.36,7.85,0.38,1.45,0.65,-1.99
37469,4095,0,-2.24,10.42,0.00,1.05,-0.34,-1.79
37522,4095,0,-2.38,9.14,-0.63,0.37,0.18,-2.56
37575,4095,0,-5.31,9.60,-1.10,-0.70,-0.50,-1.74
37628,4095,0,-5.57,8.40,-1.30,0.93,0.59,-2.01
37681,4095,0,-5.00,7.42,-0.85,0.27,0.03,-0.67
37734,4095,0,-5.30,7.29,-0.88,-0.35,-0.17,-0.37
37787,4095,0,-5.36,7.17,-0.78,-0.05,-0.12,-0.20
37840,4095,0,-6.46,8.06,-1.34,-0.27,-0.40,-0.27
37893,4095,0,-5.29,7.32,-0.64,-0.15,-0.09,0.09
37946,4095,0,-5.27,7.56,-0.96,-0.26,-0.72,0.22
37999,4095,0,-5.74,8.15,-0.11,-0.36,-0.69,1.01
38052,4095,0,-3.25,6.71,0.41,-2.21,0.06,-0.55
38105,4095,0,-8.71,8.61,1.17,-1.28,-0.83,-0.80
38158,4095,0,-5.04,8.42,1.78,-0.62,-0.56,-0.14
38211,4095,0,-4.52,7.72,1.98,-0.12,-1.03,-0.11
38264,4095,0,-4.96,8.55,2.18,-0.47,-1.45,0.05
38317,4095,0,-5.06,8.71,2.12,0.19,-1.23,0.99
38370,4095,0,-4.27,7.04,2.10,-0.26,-1.01,1.09
38423,4095,0,-1.41,5.93,4.93,-1.19,-1.25,0.24
38476,4095,0,-2.94,6.31,4.73,0.60,0.89,1.12
38529,4095,0,-3.58,9.54,5.15,-0.78,-1.12,-2.54
38582,4095,0,-4.16,7.75,4.64,0.31,-0.14,0.75
38635,4095,0,-3.59,9.88,4.07,0.02,-0.44,2.27
38688,4095,0,-3.39,6.30,4.48,-0.05,-0.65,0.53
38741,4095,0,-3.72,10.38,4.46,-0.11,-0.59,0.66
38794,4095,0,-3.04,8.23,4.79,1.77,0.15,0.65
38847,4095,0,-1.78,7.79,3.37,0.49,0.11,0.26
38900,4095,0,-2.78,9.06,2.98,0.38,0.02,-1.16
38953,4095,0,-5.59,7.11,3.91,-0.15,0.24,-7.06
39006,4095,0,-4.93,7.81,3.35,-0.26,-0.01,-2.56
39059,4095,0,-6.45,7.44,3.66,0.19,-0.01,0.16
39112,4095,0,-5.80,7.10,3.22,0.01,0.09,1.19
39165,4095,0,-5.93,7.57,3.27,-0.53,0.13,1.31
39218,4095,0,-5.69,6.25,3.44,-0.47,0.42,1.93
39271,4095,0,-3.10,7.98,3.47,-0.57,0.17,0.46
39324,4095,0,-3.58,6.45,4.08,-0.56,-0.60,-0.06
39377,4095,0,-4.34,8.34,4.42,-0.86,-0.55,0.10
39430,4095,0,-3.78,7.93,4.40,0.25,-0.27,0.78
39483,4095,0,-3.14,7.01,4.38,-0.52,-0.29,1.27
39536,4095,0,-2.77,9.73,4.76,0.68,-0.12,1.18
39589,4095,0,-2.51,7.55,4.46,1.35,-0.16,2.22
39642,4095,0,-1.14,9.12,2.88,0.44,0.34,0.75
39695,4095,0,-1.07,9.67,3.02,-0.18,0.20,0.39
39748,4095,0,-1.13,9.27,3.01,0.11,0.14,0.52
39801,4095,0,-0.36,8.54,3.17,-0.04,0.12,0.42
39854,4095,0,-0.37,9.89,3.70,-0.58,-0.18,-0.21
39907,4095,0,-0.42,9.12,3.29,-0.06,-0.52,-0.01
39960,4095,0,-0.26,9.35,3.82,0.11,-1.04,0.53
40013,4095,0,0.05,8.91,3.24,0.31,-0.36,1.29
40066,4095,0,0.29,9.07,3.62,-0.35,-0.34,0.87
40119,4095,0,1.03,9.74,3.41,-0.15,-0.10,0.82
40172,4095,0,1.38,9.40,4.13,-0.40,-0.21,0.96
40225,4095,0,1.95,9.39,3.88,-0.38,-0.09,0.56
40278,4095,0,1.90,9.82,4.29,0.35,-0.62,1.69
40331,4095,0,3.12,8.50,3.89,-0.01,-0.22,0.93
40384,4095,0,3.69,9.02,3.75,-0.03,-0.09,0.47
40437,4095,0,3.68,8.65,4.04,-0.16,-0.20,0.18
40490,4095,0,3.65,8.37,4.05,-0.19,-0.10,0.06
40543,4095,0,3.85,8.60,4.19,-0.17,-0.06,-0.09
40596,4095,0,3.81,8.56,3.98,-0.14,-0.02,-0.07
40649,4095,0,3.83,8.73,3.87,0.02,-0.03,-0.01
40702,4095,0,3.89,8.56,4.43,0.12,0.01,0.59
40755,4095,0,3.90,8.44,4.27,0.08,-0.04,0.27
40808,4095,0,4.06,8.50,4.04,0.09,-0.11,0.12
40861,4095,0,4.04,8.52,4.13,0.05,-0.16,-0.09
40914,4095,0,4.04,8.49,4.07,-0.01,-0.17,-0.22
40967,4095,0,3.78,8.47,4.22,0.02,-0.19,-0.19
41020,4095,0,3.84,8.50,4.20,-0.00,-0.15,-0.09
41073,4095,0,3.97,8.62,3.97,-0.05,-0.28,-0.08
41126,4095,0,3.85,8.62,4.01,0.11,-0.20,-0.09
41179,4095,0,3.77,8.63,4.02,0.21,-0.17,0.02
41232,4095,0,3.76,8.55,3.96,0.11,-0.14,-0.05
41285,4095,0,3.74,8.62,3.84,0.11,-0.18,-0.09
41338,4095,0,3.74,8.68,3.80,0.09,-0.14,-0.10
41391,4095,0,3.71,8.67,3.77,0.09,-0.15,-0.11
41444,4095,0,3.64,8.65,3.85,0.10,-0.10,-0.18
41497,4095,0,3.53,8.77,3.75,0.01,-0.13,-0.17
41550,4095,0,3.47,8.90,3.69,0.08,-0.15,-0.14
41603,4095,0,3.40,8.91,3.75,0.03,-0.17,-0.08
41656,4095,0,3.48,8.88,3.86,0.03,-0.14,-0.03
41709,4095,0,2.91,9.18,3.84,0.12,-0.11,0.28
41762,4095,0,5.74,7.81,4.24,0.87,0.76,3.31
41815,4095,0,5.32,9.57,3.97,0.51,0.04,1.73
41868,4095,0,6.78,8.48,3.14,0.62,-0.73,1.53
41921,4095,0,6.90,6.88,2.47,0.91,-0.98,1.41
41974,4095,0,7.65,6.50,2.03,0.64,-1.04,0.60
42027,4095,0,7.89,7.13,1.27,0.58,-1.18,0.27
42080,4095,0,7.67,6.73,0.60,1.41,-1.29,1.36
42133,4095,0,7.54,5.05,-0.72,2.31,-1.64,2.66
42186,4095,0,8.40,4.06,-1.65,1.47,-1.20,2.00
42239,4095,0,9.08,3.14,-2.43,0.84,-0.98,1.13
42292,4095,0,8.66,2.82,-2.86,0.71,-0.88,0.64
42345,4095,0,9.03,2.21,-3.45,0.45,-0.72,0.20
42398,4095,0,8.76,2.44,-3.58,0.52,-0.73,0.18
42451,4095,0,8.98,2.38,-3.76,0.33,-0.80,-0.36
42504,4095,0,8.26,2.30,-3.88,0.22,-0.33,0.03
42557,4095,0,8.47,2.28,-4.30,0.13,-0.30,-0.10
42610,4095,0,8.39,2.29,-4.38,0.19,-0.45,-0.31
42663,4095,0,8.05,2.36,-4.08,-0.11,-0.26,-0.70
42716,4095,0,7.70,2.71,-4.09,-1.18,0.42,-2.22
42769,4095,0,7.36,4.59,-3.74,-0.70,0.26,-2.52
42822,4095,0,7.12,5.68,-3.65,-1.02,0.29,-2.83
42875,4095,0,5.80,6.28,-2.63,-1.33,-0.26,-3.49
42928,4095,0,4.95,7.26,-1.93,-0.45,-0.22,-0.27
42981,4095,0,5.47,8.04,-2.37,-0.82,0.20,-0.30
43034,4095,0,5.15,8.53,-2.03,-0.73,0.15,-0.11
43087,4095,0,5.34,8.16,-1.47,-0.28,0.11,0.16
43140,4095,0,5.75,8.38,-0.52,-0.33,0.14,0.18
43193,4095,0,5.63,7.92,-0.13,-0.16,-0.09,0.18
43246,4095,0,5.76,7.89,-0.95,-0.11,-0.18,1.04
43299,4095,0,5.95,7.61,-1.19,-0.11,-0.09,0.81
43352,4095,0,6.35,7.63,-1.03,-0.13,-0.01,0.30
43405,4095,0,6.96,7.91,-0.07,0.03,-0.19,0.41
43458,4095,0,6.52,7.32,0.13,0.01,-0.20,0.03
43511,4095,0,6.65,7.58,-0.79,-0.31,-0.19,-0.32
43564,4095,0,6.40,7.92,-1.22,-0.11,-0.22,-0.33
43617,4095,0,6.34,8.03,-0.87,0.08,-0.21,-0.23
43670,4095,0,6.07,7.60,-0.36,0.12,-0.19,-0.13
43723,4095,0,5.99,7.73,-0.21,0.11,-0.18,-0.30
43776,4095,0,5.70,7.30,-0.62,-0.21,-0.27,-0.18
43829,4095,0,6.33,7.88,-0.97,-0.17,0.07,-0.32
43882,4095,0,5.77,7.44,-0.50,-0.06,-0.05,-0.28
43935,4095,0,5.49,8.04,-0.61,-0.50,-0.05,-0.64
43988,4095,0,5.84,8.88,0.15,-0.03,-0.14,-0.19
44041,4095,0,6.02,8.94,-0.37,0.20,-0.21,0.01
44094,4095,0,1.91,9.65,-1.30,-1.44,-2.11,-4.64
44147,4095,0,3.34,10.66,1.47,-0.84,-0.36,-1.21
44200,4095,0,2.10,9.74,0.29,-0.22,-0.02,-0.70
44253,4095,0,1.57,10.12,0.71,-0.24,0.15,-0.75
44306,4095,0,1.51,9.67,0.42,-0.09,0.03,-0.53
44359,4095,0,1.58,9.90,0.13,0.41,0.47,-0.31
44412,4095,0,1.11,9.38,0.79,-0.38,-0.22,-0.43
44465,4095,0,0.85,9.72,1.00,-0.11,-0.34,-0.37
44518,4095,0,0.75,9.70,0.84,-0.18,-0.19,-0.15
44571,4095,0,0.50,8.30,-0.16,-0.30,-0.23,-0.12
44624,4095,0,0.25,12.62,0.32,-1.23,-0.03,0.32
44677,4095,0,1.27,8.41,2.64,0.79,1.71,0.24
44730,4095,0,1.73,9.38,1.62,0.18,0.40,-0.25
44783,4095,0,0.66,9.70,1.38,0.09,-0.56,-0.66
44836,4095,0,0.22,9.71,1.38,0.10,-0.49,-0.61
44889,4095,0,0.40,9.93,1.20,-0.01,-0.38,-0.18
44942,4095,0,0.17,9.64,1.07,0.01,-0.30,-0.03
44995,4095,0,0.34,9.80,1.08,-0.04,-0.20,-0.06
45048,4095,0,0.43,9.56,0.91,-0.03,-0.20,0.01
45101,4095,0,0.30,9.52,1.08,-0.03,-0.27,-0.07
45154,4095,0,-0.26,9.80,1.09,-0.17,-0.29,-0.07
45207,4095,0,-0.46,10.28,1.41,-0.14,-0.35,-0.10
45260,4095,0,0.04,9.83,1.33,-0.00,-0.22,0.00
45313,4095,0,0.41,9.54,1.22,-0.00,-0.10,0.09
45366,4095,0,0.46,9.57,1.17,0.11,-0.14,0.15
45419,4095,0,0.50,9.66,1.09,0.07,-0.21,-0.02
45472,4095,0,0.21,9.69,1.19,0.01,-0.14,-0.03
45525,4095,0,0.22,9.67,1.24,0.05,-0.13,0.06
45578,4095,0,0.11,9.94,1.26,-0.06,-0.21,-0.09
45631,4095,0,0.19,9.70,1.35,0.05,-0.17,-0.01
45684,4095,0,0.28,9.70,1.30,0.03,-0.18,-0.02
45737,4095,0,0.25,9.80,1.20,-0.03,-0.16,-0.07
45790,4095,0,0.20,9.68,1.16,0.03,-0.17,-0.02
45843,4095,0,0.26,9.63,1.32,0.02,-0.13,-0.09
45896,4095,0,0.17,9.70,1.29,0.05,-0.13,-0.00
45949,4095,0,0.06,9.78,1.16,0.12,-0.17,0.11
46002,4095,0,0.04,9.74,1.14,0.01,-0.16,-0.01
46055,4095,0,0.10,9.83,1.26,0.01,-0.14,-0.02
46108,4095,0,0.22,9.73,1.29,-0.00,-0.14,-0.01
46161,4095,0,0.21,9.66,1.24,0.03,-0.14,0.04
46214,4095,0,0.10,9.72,1.15,0.08,-0.12,-0.04
46267,4095,0,0.06,9.65,1.28,0.14,-0.12,0.12
46320,4095,0,0.22,9.76,1.18,0.11,-0.16,0.09
46373,4095,0,0.26,9.72,1.13,0.08,-0.17,0.07
46426,4095,0,0.24,9.78,1.14,0.06,-0.19,0.01
46479,4095,0,0.28,9.65,1.01,0.12,-0.21,0.08
46532,4095,0,0.29,9.84,1.03,0.22,-0.12,0.11
46585,4095,0,0.16,9.96,0.63,0.53,-0.11,0.20
46638,4095,0,0.59,9.35,0.05,0.45,-0.26,0.10
46691,4095,0,0.60,10.35,-0.27,0.75,-0.06,0.00
46744,4095,0,0.93,7.47,-0.08,1.11,-0.30,0.52
46797,4095,0,0.89,9.05,-0.28,0.50,-0.25,0.44
46850,4095,0,0.82,10.13,-0.68,0.13,-0.24,0.03
46903,4095,0,1.01,9.64,-1.06,0.11,-0.16,0.14
46956,4095,0,1.08,9.51,-1.04,-0.05,-0.14,0.03
47009,4095,0,1.06,9.03,-0.69,-0.28,-0.22,-0.05
47062,4095,0,1.20,9.38,-0.70,-0.47,-0.36,0.02
47115,4095,0,1.95,7.64,0.46,-2.08,-1.11,-0.44
47168,4095,0,1.86,9.13,0.45,-0.25,-0.37,0.24
47221,4095,0,1.21,9.73,0.70,0.02,-0.38,0.44
47274,4095,0,1.52,9.54,0.69,0.03,-0.20,0.16
47327,4095,0,1.55,9.81,0.54,-0.18,-0.23,-0.08
47380,4095,0,1.63,9.57,0.36,-0.21,-0.24,-0.10
47433,4095,0,1.85,9.54,0.52,-0.29,-0.43,-0.46
47486,4095,0,1.21,9.88,0.62,-0.15,-0.35,-0.23
47539,4095,0,2.29,8.85,0.74,-0.19,-0.37,0.66
47592,4095,0,1.23,9.55,1.12,-0.21,-0.35,0.20
47645,4095,0,1.47,9.90,1.08,-0.13,-0.15,0.13
47698,4095,0,1.38,9.71,0.93,-0.15,-0.14,-0.04
47751,4095,0,1.34,9.61,1.28,-0.06,-0.11,-0.05
47804,4095,0,1.42,9.84,1.53,0.02,-0.21,-0.15
47857,4095,0,1.33,9.77,0.85,0.00,-0.23,-0.12
47910,4095,0,0.99,10.35,3.19,0.16,-0.26,-1.15
47963,4095,0,1.17,9.32,0.06,0.49,-0.20,0.03
48016,4095,0,1.08,9.51,-0.03,0.50,-0.12,0.18
48069,4095,0,0.80,9.62,0.39,0.10,-0.03,-0.01
48122,4095,0,0.81,9.76,0.35,0.06,-0.00,0.00
48175,4095,0,0.93,9.63,0.68,-0.05,-0.04,-0.14
48228,4095,0,0.69,9.73,0.82,-0.16,-0.08,-0.10
48281,4095,0,0.70,9.76,0.96,-0.16,-0.15,-0.11
48334,4095,0,0.45,9.64,0.73,-0.15,-0.23,0.04
48387,4095,0,0.61,9.62,0.95,-0.04,-0.11,0.04
48440,4095,0,0.70,9.77,1.06,0.02,-0.15,0.02
48493,4095,0,0.77,9.91,0.87,0.01,-0.15,0.02
48546,4095,0,0.79,9.53,0.89,-0.04,-0.15,-0.02
48599,4095,0,0.83,9.69,1.01,-0.04,-0.15,-0.00
48652,4095,0,0.79,9.62,0.94,-0.07,-0.10,-0.08
48705,4095,0,0.81,9.69,1.03,-0.04,-0.24,-0.08
48758,4095,0,0.82,9.73,1.10,-0.01,-0.40,-0.32
48811,4095,0,0.61,9.74,0.97,0.06,-0.20,-0.00
48864,4095,0,0.36,9.66,0.88,0.05,-0.17,-0.05
48917,4095,0,0.59,9.91,0.92,0.05,-0.21,-0.15
48970,4095,0,0.67,9.49,1.02,-0.14,-0.17,-0.42
49023,4095,0,1.22,9.16,1.39,-0.30,-0.17,0.22
49076,4095,0,2.04,9.51,1.47,-0.06,-0.46,-0.30
49129,4095,0,0.50,9.37,1.49,-0.01,-0.22,-0.05
49182,4095,0,0.46,9.66,1.69,-0.07,-0.06,-0.19
49235,4095,0,0.02,10.28,1.90,-0.04,-0.11,-0.54
49288,4095,0,-1.73,10.72,1.36,0.13,0.31,-1.23
49341,4095,0,-2.43,10.95,1.68,0.67,1.11,-1.02
49394,4095,0,-1.37,8.42,1.44,0.60,1.89,-0.48
49447,4095,0,0.30,9.49,0.70,0.30,1.38,-0.37
49500,4095,0,-0.59,8.93,0.74,0.12,1.40,0.05
1694,4095,0,-2.24,9.13,3.89,-0.50,0.33,-0.49
1747,4095,0,-3.38,8.10,4.88,-0.61,-0.23,-0.34
1800,4095,0,-3.39,8.15,4.75,-0.62,-0.12,-0.03
1853,4095,0,-3.22,7.60,4.96,-0.58,-0.01,0.15
1906,4095,0,-3.62,8.32,4.65,1.58,-0.54,1.26
1959,4095,0,-1.90,8.19,4.54,1.14,-0.45,0.61
2012,4095,0,-1.76,9.63,4.05,0.20,-0.57,0.15
2065,4095,0,-1.53,8.75,3.70,0.71,-0.70,1.17
2118,4095,0,-0.62,8.68,3.38,0.90,-0.54,1.00
2171,4095,0,1.44,12.37,3.84,-0.09,-0.32,1.34
2224,4095,0,1.73,9.15,3.09,0.52,-0.51,3.09
2277,4095,0,0.83,8.67,2.70,-0.43,-0.03,1.64
2330,4095,0,2.55,10.47,2.94,0.01,-0.36,-0.01
2383,4095,0,3.02,9.24,3.12,0.11,-0.17,1.43
2436,4095,0,3.54,9.12,3.07,0.26,0.00,1.46
2489,4095,0,4.04,8.82,2.93,0.06,0.14,1.11
2542,4095,0,4.51,8.50,2.90,-0.01,0.15,0.73
2595,4095,0,5.12,8.36,3.24,-0.17,0.08,1.14
2648,4095,0,5.41,7.86,3.28,-0.19,0.18,0.46
2701,4095,0,5.79,7.73,3.17,-0.20,0.25,0.65
2754,4095,0,6.80,7.78,3.33,-0.01,0.07,1.05
2807,4095,0,5.96,7.49,3.51,0.28,-0.03,0.86
2860,4095,0,6.58,7.07,3.59,0.04,-0.09,0.17
2913,4095,0,6.76,6.80,3.58,0.23,-0.06,0.53
2966,4095,0,6.68,6.90,3.31,0.08,-0.15,0.08
3019,4095,0,7.02,6.95,3.18,0.10,-0.21,-0.02
3072,4095,0,6.73,7.09,3.37,0.15,-0.04,-0.10
3125,4095,0,7.01,7.31,3.30,0.25,-0.38,-0.26
3178,4095,0,5.39,6.95,2.99,0.09,0.08,-0.82
3231,4095,0,5.88,7.49,3.52,-0.08,0.60,-2.22
3284,4095,0,3.91,7.20,3.67,-0.64,0.57,-1.92
3337,4095,0,5.65,10.58,4.07,-0.26,-0.13,-1.73
3390,4095,0,4.29,8.88,2.38,0.21,-0.31,-0.90
3443,4095,0,2.88,8.24,2.79,0.59,-0.88,-1.00
3496,4095,0,2.94,9.04,3.94,0.32,-0.83,-0.96
3549,4095,0,4.10,10.23,3.21,2.77,-1.54,3.04
3602,4095,0,5.24,9.40,1.78,1.47,-1.02,3.19
3655,4095,0,5.68,6.39,0.48,1.58,-1.02,3.31
3708,4095,0,6.90,5.01,-1.02,0.76,-0.73,2.41
3761,4095,0,6.53,4.83,-2.31,0.17,-0.13,0.84
3814,4095,0,8.65,5.99,-0.72,-0.60,0.22,-0.14
3867,4095,0,7.91,5.62,0.00,-0.46,-0.04,0.08
3920,4095,0,7.76,5.37,0.11,-0.64,-0.05,-0.47
3973,4095,0,7.90,6.23,-0.22,-0.75,-0.29,-1.23
4026,4095,0,7.25,6.47,0.88,-1.31,-0.02,-2.78
4079,4095,0,5.87,8.05,0.96,-1.57,0.25,-3.26
4132,4095,0,4.57,9.69,1.41,-2.26,-0.27,-4.99
4185,4095,0,2.21,9.41,3.28,0.06,-0.51,-0.83
4238,4095,0,1.62,8.64,3.38,-0.43,0.07,-0.38
4291,4095,0,2.58,10.32,3.02,-0.04,-0.10,-0.46
4344,4095,0,1.58,9.02,2.89,0.42,-0.39,-0.26
4397,4095,0,1.12,9.20,2.96,0.45,-0.36,-0.20
4450,4095,0,0.81,9.78,2.95,0.32,-1.24,-0.51
4503,4095,0,0.73,7.80,3.07,-0.31,0.25,0.17
4556,4095,0,0.91,8.43,2.77,0.51,-0.44,2.20
4609,4095,0,2.76,9.24,2.73,0.19,-0.09,2.09
4662,4095,0,3.47,8.94,2.51,0.25,-0.20,1.59
4715,4095,0,4.11,8.93,2.44,0.17,0.00,0.75
4768,4095,0,4.32,8.81,2.38,0.11,-0.12,0.08
4821,4095,0,4.23,9.56,2.37,0.23,-0.56,-0.46
4874,4095,0,3.47,9.61,3.31,-4.44,0.44,-3.78
4927,4095,0,-0.25,13.98,3.90,0.54,0.55,0.48
4980,4095,0,-1.35,6.77,5.38,-1.68,0.66,-3.01
5033,4095,0,-0.82,9.96,4.55,0.85,-0.34,-0.62
5086,4095,0,-1.67,11.55,3.64,1.98,2.00,0.42
5139,4095,0,0.65,4.00,2.93,1.29,0.24,-1.26
5192,4095,0,-0.70,11.85,2.66,1.03,1.19,-0.05
5245,4095,0,-1.04,7.93,2.32,0.11,0.95,-0.17
5298,4095,0,-1.08,11.63,2.26,1.29,1.75,-0.25
5351,4095,0,-1.46,7.46,0.89,0.19,0.17,-0.18
5404,4095,0,-1.38,9.28,1.76,-0.46,0.30,-0.36
5457,4095,0,-1.52,9.46,1.07,-0.71,0.06,-0.38
5510,4095,0,-2.70,9.12,1.58,-0.04,-0.47,0.85
5563,4095,0,-1.39,8.04,3.14,-1.57,0.19,0.45
5616,4095,0,-0.58,10.02,3.12,0.65,-0.17,2.24
5669,4095,0,0.46,11.33,1.92,0.27,-0.51,0.35
5722,4095,0,0.12,8.99,0.77,0.17,-0.30,-1.92
5775,4095,0,-1.95,13.37,5.60,-0.89,-0.64,-0.49
5828,4095,0,-1.34,10.32,2.39,0.40,0.40,-0.20
5881,4095,0,-1.57,8.45,2.79,0.28,0.54,-0.36
5934,4095,0,-0.32,9.67,2.00,-0.12,0.25,-0.21
5987,4095,0,-1.46,11.13,-0.01,1.30,0.06,0.46
6040,4095,0,-1.03,8.71,1.26,0.69,0.10,0.12
6093,4095,0,-0.44,9.95,1.99,-1.22,-0.14,-1.52
6146,4095,0,-2.22,11.35,2.44,4.05,-1.95,2.03
6199,4095,0,-3.54,5.46,0.47,0.33,0.23,0.24
6252,4095,0,1.90,8.79,-0.28,1.28,0.83,0.05
6305,4095,0,-3.62,11.10,1.17,0.82,-0.26,-0.51
6358,4095,0,0.64,9.04,-0.58,-0.52,-0.32,0.18
6411,4095,0,-1.87,10.93,-1.24,-0.67,-0.90,-0.70
6464,4095,0,-1.01,7.99,-0.62,-0.02,-1.02,-0.23
6517,4095,0,-0.98,7.16,0.57,-0.88,-1.86,-1.12
6570,4095,0,-3.09,10.81,0.89,-1.89,-1.22,-1.09
6623,4095,0,-1.73,8.14,1.65,0.36,-0.62,0.33
6676,4095,0,-3.21,8.72,1.52,-1.37,-0.24,0.18
6729,4095,0,-3.65,10.07,1.23,-1.32,-0.56,-0.18
6782,4095,0,-1.38,7.89,6.06,-0.83,0.35,0.60
6835,4095,0,-5.60,11.55,3.29,-1.98,1.51,0.17
6888,4095,0,2.37,10.87,3.99,0.65,0.26,0.50
6941,4095,0,-3.44,7.10,4.49,0.74,-0.10,0.10
6994,4095,0,-2.24,10.36,2.61,-0.50,-0.80,-0.20
7047,4095,0,-1.70,11.50,2.75,0.40,-0.18,-0.24
7100,4095,0,-1.36,8.02,1.77,0.89,-0.35,0.33
7153,4095,0,-1.33,6.86,3.09,1.09,-0.83,0.54
7206,4095,0,-0.98,13.12,0.55,-0.62,-1.56,-1.44
7259,4095,0,-3.82,7.27,4.05,1.66,-1.10,0.26
7312,4095,0,0.02,8.04,3.23,-0.46,-0.55,-0.19
7365,4095,0,-6.44,9.34,3.07,0.61,-2.07,1.59
7418,4095,0,-1.42,8.99,1.02,-1.72,2.85,-1.16
7471,4095,0,0.76,11.34,1.47,0.89,-1.00,0.80
7524,4095,0,-1.24,7.84,2.93,-0.82,-0.17,-1.04
7577,4095,0,-2.10,10.70,2.54,0.32,-0.98,-0.21
7630,4095,0,-0.33,6.43,2.03,-0.23,-0.67,-0.04
7683,4095,0,-4.84,12.54,2.46,-0.90,0.87,1.19
7736,4095,0,2.77,6.91,5.24,1.54,-0.77,2.01
7789,4095,0,-2.18,9.82,3.28,-1.90,-0.02,-0.90
7842,4095,0,-1.41,11.33,2.67,0.27,-0.00,0.63
7895,4095,0,-0.30,7.16,3.83,-0.42,-0.30,0.83
7948,4095,0,-0.60,8.62,5.55,-3.26,0.34,-0.65
8001,4095,0,0.65,11.23,5.60,-1.30,0.54,0.07
8054,4095,0,0.31,9.59,5.91,-0.16,-0.05,-0.03
8107,4095,0,3.30,9.95,6.14,-0.08,-1.63,-1.09
8160,4095,0,-0.66,7.35,7.67,1.35,-3.11,0.17
8213,4095,0,-3.30,7.11,6.14,0.04,-0.70,-0.07
8266,4095,0,0.07,8.13,6.17,-0.89,0.85,-0.57
8319,4095,0,1.68,9.26,4.94,-0.49,-0.41,-0.22
8372,4095,0,-0.62,8.39,6.78,0.19,-1.19,0.89
8425,4095,0,-1.02,8.37,6.15,-0.19,0.53,0.09
8478,4095,0,-0.10,7.45,4.96,0.02,0.36,1.47
8531,4095,0,1.39,6.93,6.39,-1.14,0.09,0.92
8584,4095,0,0.55,10.19,8.19,-2.20,-0.88,0.11
8637,4095,0,-1.19,9.43,8.22,0.94,0.51,0.03
8690,4095,0,0.68,7.03,7.91,1.33,1.22,-0.61
8743,4095,0,-0.00,7.67,4.46,-0.39,1.24,-0.76
8796,4095,0,1.89,6.77,6.24,-0.71,0.45,-1.23
8849,4095,0,-0.76,9.18,6.90,0.63,0.21,0.69
8902,4095,0,-1.64,7.26,6.46,-0.45,0.62,0.62
8955,4095,0,-2.90,10.26,5.80,1.86,1.45,0.95
9008,4095,0,1.85,7.07,5.39,0.17,1.24,-0.57
9061,4095,0,-0.87,8.47,5.35,-0.29,-0.06,0.39
9114,4095,0,-0.83,6.68,5.59,-1.04,0.48,-0.47
9167,4095,0,-2.73,9.96,7.01,-1.23,-0.66,-1.36
9220,4095,0,-1.52,8.33,5.59,1.80,-1.07,-0.05
9273,4095,0,-2.40,5.00,6.50,-0.44,-0.12,-0.50
9326,4095,0,-1.92,9.40,7.36,-0.93,-1.04,-0.50
9379,4095,0,-1.87,6.73,6.76,0.28,0.05,-0.08
9432,4095,0,-1.20,8.33,6.77,0.31,-0.83,0.51
9485,4095,0,-2.14,7.72,6.25,0.03,-0.26,-0.23
9538,4095,0,-1.28,6.81,6.60,0.99,-1.05,0.97
9591,4095,0,-2.10,6.60,7.15,-0.57,-0.48,0.16
9644,4095,0,-0.18,9.64,6.84,-0.73,-0.44,-0.43
9697,4095,0,-1.92,6.71,6.95,1.11,-0.77,0.62
9750,4095,0,-0.12,7.28,7.45,-1.16,0.17,-0.42
9803,4095,0,-1.18,8.38,7.00,0.13,-0.52,0.15
9856,4095,0,0.85,8.49,7.64,0.18,-0.59,-0.25
9909,4095,0,-0.35,8.00,7.16,0.79,-1.27,0.07
9962,4095,0,-1.74,6.65,7.11,0.75,-0.69,0.23
10015,4095,0,0.11,7.07,6.91,-0.53,-0.06,-0.26
10068,4095,0,-0.56,8.43,7.14,-0.55,-0.58,0.14
10121,4095,0,-0.39,8.20,7.07,0.18,0.10,0.03
10174,4095,0,0.03,6.59,7.23,0.05,-0.33,0.27
10227,4095,0,-0.26,7.51,7.13,-0.50,-0.00,0.03
10280,4095,0,0.00,7.50,7.43,-0.28,-0.21,0.13
10333,4095,0,0.24,7.89,7.23,0.06,-0.22,-0.01
10386,4095,0,-0.33,6.76,7.47,0.20,-0.27,0.19
10439,4095,0,0.26,7.42,7.34,-0.33,-0.40,-0.14
10492,4095,0,-0.35,7.82,7.46,0.05,-0.40,0.11
10545,4095,0,0.37,7.09,7.56,0.05,-0.02,-0.05
10598,4095,0,0.10,7.60,7.26,-0.00,-0.45,-0.02
10651,4095,0,0.12,7.37,7.47,0.08,-0.05,-0.10
10704,4095,0,-0.06,7.04,7.56,-0.12,-0.27,-0.06
10757,4095,0,-0.03,7.55,7.47,0.07,-0.20,-0.01
10810,4095,0,0.39,7.12,7.49,0.06,-0.13,0.04
10863,4095,0,0.01,7.28,7.50,-0.14,-0.13,-0.02
10916,4095,0,0.21,7.44,7.50,0.04,-0.15,-0.02
10969,4095,0,0.16,7.04,7.60,0.05,-0.15,0.02
11022,4095,0,0.32,7.25,7.80,-0.26,-0.12,-0.01
11075,4095,0,0.39,7.87,7.86,-0.01,-0.26,0.12
11128,4095,0,0.82,8.42,7.62,0.30,-0.54,-0.50
11181,4095,0,-0.26,7.27,8.32,1.06,-1.07,0.12
11234,4095,0,0.01,5.91,7.73,-0.60,0.41,-0.70
11287,4095,0,0.13,7.78,8.29,-0.17,0.12,0.66
11340,4095,0,-2.05,6.05,7.84,0.37,0.76,0.26
11393,4095,0,-2.26,7.52,8.15,-0.53,2.11,0.23
11446,4095,0,-0.32,7.18,7.44,-0.05,2.80,0.11
11499,4095,0,-0.37,7.74,6.84,-0.23,1.51,-0.04
11552,4095,0,-1.29,8.13,6.55,-0.08,0.47,-0.52
11605,4095,0,-2.25,6.79,6.26,0.20,0.29,-0.13
11658,4095,0,-2.15,7.26,6.00,-0.27,-0.13,-0.15
11711,4095,0,-2.13,8.30,6.38,0.27,-1.09,-0.09
